File: Output/ROCK_XRD/WAM39B_integrated/rampe2/wam39b_rampe_2_xrd_000001_integrated.dat
# == pyFAI calibration ==
# Distance Sample to Detector: 0.261615 m
# PONI: 2.023e-01, 2.348e-01 m
# Rotations: -0.026380 0.002005 0.000000 rad
#
# == Fit2d calibration ==
# Distance Sample-beamCenter: 261.707 mm
# Center: x=6119.331, y=5134.776 pix
# Tilt: 1.516 deg  TiltPlanRot: 4.347 deg
#
# Detector Rayonix SX165	 PixelSize= 3.950e-05, 3.950e-05 m
#    Detector has a mask: True
#    Detector has a dark current: False
#    detector has a flat field: False
#
# Wavelength: 1.12713e-10 m
# Mask applied: from detector
# Dark current applied: False
# Flat field applied: False
# Polarization factor: None
# Normalization factor: 1.0
# --> ROCK\\WAM39B_integrated\wam39b_rampe_2_xrd_000001_integrated.dat
#       2th_deg             I
  2.502596e+01    4.252402e+03
  2.504885e+01    1.116035e+04
  2.507173e+01    1.501902e+04
  2.509462e+01    1.596331e+04
  2.511750e+01    1.747832e+04
  2.514039e+01    1.810726e+04
  2.516327e+01    1.803090e+04
  2.518616e+01    1.786175e+04
  2.520905e+01    1.773713e+04
  2.523193e+01    1.751363e+04
  2.525482e+01    1.757559e+04
  2.527770e+01    1.788853e+04
  2.530059e+01    1.781903e+04
  2.532347e+01    1.764614e+04
  2.534636e+01    1.746442e+04
  2.536924e+01    1.733717e+04
  2.539213e+01    1.728141e+04
  2.541501e+01    1.725702e+04
  2.543790e+01    1.724947e+04
  2.546078e+01    1.726250e+04
  2.548367e+01    1.719626e+04
  2.550656e+01    1.700926e+04
  2.552944e+01    1.686829e+04
  2.555233e+01    1.702655e+04
  2.557521e+01    1.710013e+04
  2.559810e+01    1.702010e+04
  2.562098e+01    1.700871e+04
  2.564387e+01    1.702073e+04
  2.566675e+01    1.702855e+04
  2.568964e+01    1.695402e+04
  2.571252e+01    1.688004e+04
  2.573541e+01    1.687467e+04
  2.575829e+01    1.683316e+04
  2.578118e+01    1.674199e+04
  2.580407e+01    1.670400e+04
  2.582695e+01    1.669989e+04
  2.584984e+01    1.669060e+04
  2.587272e+01    1.667713e+04
  2.589561e+01    1.673127e+04
  2.591849e+01    1.673465e+04
  2.594138e+01    1.677487e+04
  2.596426e+01    1.688052e+04
  2.598715e+01    1.692548e+04
  2.601003e+01    1.708120e+04
  2.603292e+01    1.721966e+04
  2.605580e+01    1.740629e+04
  2.607869e+01    1.772359e+04
  2.610157e+01    1.814780e+04
  2.612446e+01    1.879588e+04
  2.614735e+01    1.979105e+04
  2.617023e+01    2.133612e+04
  2.619312e+01    2.390893e+04
  2.621600e+01    2.807891e+04
  2.623889e+01    3.429680e+04
  2.626177e+01    4.287800e+04
  2.628466e+01    5.185374e+04
  2.630754e+01    5.754646e+04
  2.633043e+01    5.593610e+04
  2.635331e+01    4.713515e+04
  2.637620e+01    3.677294e+04
  2.639908e+01    2.912372e+04
  2.642197e+01    2.413556e+04
  2.644486e+01    2.121421e+04
  2.646774e+01    1.950760e+04
  2.649063e+01    1.833529e+04
  2.651351e+01    1.759418e+04
  2.653640e+01    1.706590e+04
  2.655928e+01    1.668534e+04
  2.658217e+01    1.639139e+04
  2.660505e+01    1.618095e+04
  2.662794e+01    1.601875e+04
  2.665082e+01    1.585860e+04
  2.667371e+01    1.574437e+04
  2.669659e+01    1.564290e+04
  2.671948e+01    1.554205e+04
  2.674237e+01    1.546289e+04
  2.676525e+01    1.539623e+04
  2.678814e+01    1.532038e+04
  2.681102e+01    1.525934e+04
  2.683391e+01    1.518814e+04
  2.685679e+01    1.513609e+04
  2.687968e+01    1.510821e+04
  2.690256e+01    1.503683e+04
  2.692545e+01    1.498611e+04
  2.694833e+01    1.492419e+04
  2.697122e+01    1.486095e+04
  2.699410e+01    1.481270e+04
  2.701699e+01    1.480935e+04
  2.703988e+01    1.474820e+04
  2.706276e+01    1.470894e+04
  2.708565e+01    1.469167e+04
  2.710853e+01    1.464649e+04
  2.713142e+01    1.460198e+04
  2.715430e+01    1.456203e+04
  2.717719e+01    1.452116e+04
  2.720007e+01    1.445730e+04
  2.722296e+01    1.441159e+04
  2.724584e+01    1.435249e+04
  2.726873e+01    1.433268e+04
  2.729161e+01    1.429847e+04
  2.731450e+01    1.425895e+04
  2.733738e+01    1.420397e+04
  2.736027e+01    1.416688e+04
  2.738316e+01    1.413184e+04
  2.740604e+01    1.409031e+04
  2.742893e+01    1.406542e+04
  2.745181e+01    1.405106e+04
  2.747470e+01    1.401272e+04
  2.749758e+01    1.398457e+04
  2.752047e+01    1.396014e+04
  2.754335e+01    1.393763e+04
  2.756624e+01    1.392482e+04
  2.758912e+01    1.391139e+04
  2.761201e+01    1.388635e+04
  2.763489e+01    1.386647e+04
  2.765778e+01    1.386566e+04
  2.768067e+01    1.387438e+04
  2.770355e+01    1.390093e+04
  2.772644e+01    1.390722e+04
  2.774932e+01    1.393352e+04
  2.777221e+01    1.403986e+04
  2.779509e+01    1.423548e+04
  2.781798e+01    1.458979e+04
  2.784086e+01    1.516845e+04
  2.786375e+01    1.605889e+04
  2.788663e+01    1.713859e+04
  2.790952e+01    1.801711e+04
  2.793240e+01    1.820203e+04
  2.795529e+01    1.753540e+04
  2.797818e+01    1.640613e+04
  2.800106e+01    1.531224e+04
  2.802395e+01    1.451500e+04
  2.804683e+01    1.402186e+04
  2.806972e+01    1.371676e+04
  2.809260e+01    1.351064e+04
  2.811549e+01    1.335986e+04
  2.813837e+01    1.324827e+04
  2.816126e+01    1.314994e+04
  2.818414e+01    1.307241e+04
  2.820703e+01    1.300775e+04
  2.822991e+01    1.293976e+04
  2.825280e+01    1.288630e+04
  2.827568e+01    1.284378e+04
  2.829857e+01    1.279406e+04
  2.832146e+01    1.274561e+04
  2.834434e+01    1.269371e+04
  2.836723e+01    1.264744e+04
  2.839011e+01    1.260321e+04
  2.841300e+01    1.255817e+04
  2.843588e+01    1.252512e+04
  2.845877e+01    1.248415e+04
  2.848165e+01    1.244294e+04
  2.850454e+01    1.241713e+04
  2.852742e+01    1.239575e+04
  2.855031e+01    1.236605e+04
  2.857319e+01    1.230640e+04
  2.859608e+01    1.225883e+04
  2.861897e+01    1.222237e+04
  2.864185e+01    1.217755e+04
  2.866474e+01    1.213951e+04
  2.868762e+01    1.207999e+04
  2.871051e+01    1.203713e+04
  2.873339e+01    1.200512e+04
  2.875628e+01    1.195668e+04
  2.877916e+01    1.191009e+04
  2.880205e+01    1.187544e+04
  2.882493e+01    1.183630e+04
  2.884782e+01    1.180011e+04
  2.887070e+01    1.176182e+04
  2.889359e+01    1.171680e+04
  2.891648e+01    1.167126e+04
  2.893936e+01    1.162821e+04
  2.896225e+01    1.158526e+04
  2.898513e+01    1.154834e+04
  2.900802e+01    1.151218e+04
  2.903090e+01    1.145870e+04
  2.905379e+01    1.140933e+04
  2.907667e+01    1.137685e+04
  2.909956e+01    1.133159e+04
  2.912244e+01    1.128918e+04
  2.914533e+01    1.125390e+04
  2.916821e+01    1.122129e+04
  2.919110e+01    1.119071e+04
  2.921398e+01    1.116592e+04
  2.923687e+01    1.114779e+04
  2.925976e+01    1.111822e+04
  2.928264e+01    1.109888e+04
  2.930553e+01    1.110402e+04
  2.932841e+01    1.111974e+04
  2.935130e+01    1.117646e+04
  2.937418e+01    1.131606e+04
  2.939707e+01    1.157293e+04
  2.941995e+01    1.191779e+04
  2.944284e+01    1.228915e+04
  2.946572e+01    1.251708e+04
  2.948861e+01    1.240661e+04
  2.951149e+01    1.202122e+04
  2.953438e+01    1.156885e+04
  2.955727e+01    1.118109e+04
  2.958015e+01    1.091364e+04
  2.960304e+01    1.075717e+04
  2.962592e+01    1.064783e+04
  2.964881e+01    1.057299e+04
  2.967169e+01    1.050728e+04
  2.969458e+01    1.046400e+04
  2.971746e+01    1.042645e+04
  2.974035e+01    1.038064e+04
  2.976323e+01    1.034294e+04
  2.978612e+01    1.032671e+04
  2.980900e+01    1.030476e+04
  2.983189e+01    1.028179e+04
  2.985478e+01    1.025812e+04
  2.987766e+01    1.023098e+04
  2.990055e+01    1.022038e+04
  2.992343e+01    1.021007e+04
  2.994632e+01    1.019682e+04
  2.996920e+01    1.019302e+04
  2.999209e+01    1.019949e+04
  3.001497e+01    1.021505e+04
  3.003786e+01    1.022613e+04
  3.006074e+01    1.023291e+04
  3.008363e+01    1.024537e+04
  3.010651e+01    1.026785e+04
  3.012940e+01    1.031061e+04
  3.015228e+01    1.034325e+04
  3.017517e+01    1.039603e+04
  3.019806e+01    1.049283e+04
  3.022094e+01    1.059823e+04
  3.024383e+01    1.076044e+04
  3.026671e+01    1.101828e+04
  3.028960e+01    1.141217e+04
  3.031248e+01    1.204173e+04
  3.033537e+01    1.311586e+04
  3.035825e+01    1.495344e+04
  3.038114e+01    1.816823e+04
  3.040402e+01    2.429420e+04
  3.042691e+01    3.497524e+04
  3.044979e+01    4.817532e+04
  3.047268e+01    5.817973e+04
  3.049557e+01    6.095519e+04
  3.051845e+01    5.440664e+04
  3.054134e+01    4.156418e+04
  3.056422e+01    2.918602e+04
  3.058711e+01    2.061965e+04
  3.060999e+01    1.615254e+04
  3.063288e+01    1.380852e+04
  3.065576e+01    1.249738e+04
  3.067865e+01    1.173708e+04
  3.070153e+01    1.129076e+04
  3.072442e+01    1.104479e+04
  3.074730e+01    1.096259e+04
  3.077019e+01    1.103365e+04
  3.079308e+01    1.132417e+04
  3.081596e+01    1.193247e+04
  3.083885e+01    1.310757e+04
  3.086173e+01    1.521119e+04
  3.088462e+01    1.852040e+04
  3.090750e+01    2.259201e+04
  3.093039e+01    2.585168e+04
  3.095327e+01    2.646088e+04
  3.097616e+01    2.410872e+04
  3.099904e+01    2.010646e+04
  3.102193e+01    1.624936e+04
  3.104481e+01    1.348878e+04
  3.106770e+01    1.182174e+04
  3.109059e+01    1.087328e+04
  3.111347e+01    1.033144e+04
  3.113636e+01    1.000793e+04
  3.115924e+01    9.796168e+03
  3.118213e+01    9.652464e+03
  3.120501e+01    9.540282e+03
  3.122790e+01    9.443920e+03
  3.125078e+01    9.373960e+03
  3.127367e+01    9.321107e+03
  3.129655e+01    9.271786e+03
  3.131944e+01    9.228762e+03
  3.134232e+01    9.190243e+03
  3.136521e+01    9.159001e+03
  3.138809e+01    9.128148e+03
  3.141098e+01    9.101333e+03
  3.143387e+01    9.077290e+03
  3.145675e+01    9.052651e+03
  3.147964e+01    9.026608e+03
  3.150252e+01    9.003601e+03
  3.152541e+01    8.983923e+03
  3.154829e+01    8.953402e+03
  3.157118e+01    8.927206e+03
  3.159406e+01    8.910704e+03
  3.161695e+01    8.890789e+03
  3.163983e+01    8.870394e+03
  3.166272e+01    8.854345e+03
  3.168560e+01    8.838977e+03
  3.170849e+01    8.820746e+03
  3.173138e+01    8.805527e+03
  3.175426e+01    8.786979e+03
  3.177715e+01    8.765183e+03
  3.180003e+01    8.751676e+03
  3.182292e+01    8.734461e+03
  3.184580e+01    8.726361e+03
  3.186869e+01    8.716063e+03
  3.189157e+01    8.695414e+03
  3.191446e+01    8.681710e+03
  3.193734e+01    8.672917e+03
  3.196023e+01    8.657008e+03
  3.198311e+01    8.635972e+03
  3.200600e+01    8.619693e+03
  3.202889e+01    8.608337e+03
  3.205177e+01    8.597486e+03
  3.207466e+01    8.581421e+03
  3.209754e+01    8.566758e+03
  3.212043e+01    8.561741e+03
  3.214331e+01    8.558496e+03
  3.216620e+01    8.565481e+03
  3.218908e+01    8.573186e+03
  3.221197e+01    8.599907e+03
  3.223485e+01    8.660076e+03
  3.225774e+01    8.777727e+03
  3.228062e+01    8.986816e+03
  3.230351e+01    9.301076e+03
  3.232639e+01    9.667333e+03
  3.234928e+01    9.916472e+03
  3.237217e+01    9.904174e+03
  3.239505e+01    9.629986e+03
  3.241794e+01    9.249079e+03
  3.244082e+01    8.904881e+03
  3.246371e+01    8.663229e+03
  3.248659e+01    8.518504e+03
  3.250948e+01    8.440657e+03
  3.253236e+01    8.390612e+03
  3.255525e+01    8.350305e+03
  3.257813e+01    8.315842e+03
  3.260102e+01    8.296354e+03
  3.262390e+01    8.276964e+03
  3.264679e+01    8.251256e+03
  3.266968e+01    8.236757e+03
  3.269256e+01    8.224730e+03
  3.271545e+01    8.215464e+03
  3.273833e+01    8.203079e+03
  3.276122e+01    8.186522e+03
  3.278410e+01    8.166505e+03
  3.280699e+01    8.148313e+03
  3.282987e+01    8.135737e+03
  3.285276e+01    8.122340e+03
  3.287564e+01    8.108447e+03
  3.289853e+01    8.098318e+03
  3.292141e+01    8.082125e+03
  3.294430e+01    8.081462e+03
  3.296719e+01    8.077018e+03
  3.299007e+01    8.058282e+03
  3.301296e+01    8.042046e+03
  3.303584e+01    8.032139e+03
  3.305873e+01    8.021674e+03
  3.308161e+01    8.008335e+03
  3.310450e+01    7.999124e+03
  3.312738e+01    7.997440e+03
  3.315027e+01    7.988737e+03
  3.317315e+01    7.977285e+03
  3.319604e+01    7.972840e+03
  3.321892e+01    7.970821e+03
  3.324181e+01    7.964654e+03
  3.326469e+01    7.956534e+03
  3.328758e+01    7.953502e+03
  3.331047e+01    7.954876e+03
  3.333335e+01    7.952844e+03
  3.335624e+01    7.952249e+03
  3.337912e+01    7.959498e+03
  3.340201e+01    7.969540e+03
  3.342489e+01    7.986440e+03
  3.344778e+01    8.007334e+03
  3.347066e+01    8.039755e+03
  3.349355e+01    8.097122e+03
  3.351643e+01    8.183807e+03
  3.353932e+01    8.322347e+03
  3.356220e+01    8.565485e+03
  3.358509e+01    8.992099e+03
  3.360798e+01    9.770678e+03
  3.363086e+01    1.119168e+04
  3.365375e+01    1.350970e+04
  3.367663e+01    1.652239e+04
  3.369952e+01    1.919808e+04
  3.372240e+01    2.011379e+04
  3.374529e+01    1.876446e+04
  3.376817e+01    1.597055e+04
  3.379106e+01    1.304679e+04
  3.381394e+01    1.086466e+04
  3.383683e+01    9.528261e+03
  3.385971e+01    8.784802e+03
  3.388260e+01    8.377739e+03
  3.390549e+01    8.136040e+03
  3.392837e+01    7.987500e+03
  3.395126e+01    7.873194e+03
  3.397414e+01    7.793005e+03
  3.399703e+01    7.734821e+03
  3.401991e+01    7.694642e+03
  3.404280e+01    7.658465e+03
  3.406568e+01    7.625088e+03
  3.408857e+01    7.600958e+03
  3.411145e+01    7.579694e+03
  3.413434e+01    7.556551e+03
  3.415722e+01    7.540760e+03
  3.418011e+01    7.524111e+03
  3.420300e+01    7.500332e+03
  3.422588e+01    7.482865e+03
  3.424877e+01    7.472960e+03
  3.427165e+01    7.462706e+03
  3.429454e+01    7.442702e+03
  3.431742e+01    7.428249e+03
  3.434031e+01    7.419183e+03
  3.436319e+01    7.405629e+03
  3.438608e+01    7.392110e+03
  3.440896e+01    7.385927e+03
  3.443185e+01    7.370079e+03
  3.445473e+01    7.356099e+03
  3.447762e+01    7.337303e+03
  3.450050e+01    7.323535e+03
  3.452339e+01    7.318399e+03
  3.454628e+01    7.309838e+03
  3.456916e+01    7.297718e+03
  3.459205e+01    7.285611e+03
  3.461493e+01    7.275043e+03
  3.463782e+01    7.266411e+03
  3.466070e+01    7.250876e+03
  3.468359e+01    7.238074e+03
  3.470647e+01    7.230473e+03
  3.472936e+01    7.220751e+03
  3.475224e+01    7.212787e+03
  3.477513e+01    7.200315e+03
  3.479801e+01    7.188688e+03
  3.482090e+01    7.185011e+03
  3.484379e+01    7.173104e+03
  3.486667e+01    7.168668e+03
  3.488956e+01    7.159371e+03
  3.491244e+01    7.145996e+03
  3.493533e+01    7.138581e+03
  3.495821e+01    7.122536e+03
  3.498110e+01    7.113345e+03
  3.500398e+01    7.110259e+03
  3.502687e+01    7.101985e+03
  3.504975e+01    7.096777e+03
  3.507264e+01    7.095173e+03
  3.509552e+01    7.086172e+03
  3.511841e+01    7.082340e+03
  3.514130e+01    7.075208e+03
  3.516418e+01    7.068855e+03
  3.518707e+01    7.057204e+03
  3.520995e+01    7.053072e+03
  3.523284e+01    7.053798e+03
  3.525572e+01    7.044544e+03
  3.527861e+01    7.028822e+03
  3.530149e+01    7.014793e+03
  3.532438e+01    6.995579e+03
  3.534726e+01    6.981564e+03
  3.537015e+01    6.978426e+03
  3.539303e+01    6.970308e+03
  3.541592e+01    6.962040e+03
  3.543880e+01    6.948303e+03
  3.546169e+01    6.936256e+03
  3.548458e+01    6.931251e+03
  3.550746e+01    6.926860e+03
  3.553035e+01    6.919313e+03
  3.555323e+01    6.907379e+03
  3.557612e+01    6.897222e+03
  3.559900e+01    6.896906e+03
  3.562189e+01    6.890119e+03
  3.564477e+01    6.881756e+03
  3.566766e+01    6.876423e+03
  3.569054e+01    6.871794e+03
  3.571343e+01    6.869177e+03
  3.573631e+01    6.872514e+03
  3.575920e+01    6.865664e+03
  3.578209e+01    6.856386e+03
  3.580497e+01    6.856317e+03
  3.582786e+01    6.854745e+03
  3.585074e+01    6.856009e+03
  3.587363e+01    6.859233e+03
  3.589651e+01    6.859514e+03
  3.591940e+01    6.862820e+03
  3.594228e+01    6.862766e+03
  3.596517e+01    6.865750e+03
  3.598805e+01    6.881869e+03
  3.601094e+01    6.899269e+03
  3.603382e+01    6.909736e+03
  3.605671e+01    6.927284e+03
  3.607960e+01    6.963952e+03
  3.610248e+01    6.998649e+03
  3.612537e+01    7.053759e+03
  3.614825e+01    7.167194e+03
  3.617114e+01    7.358795e+03
  3.619402e+01    7.691106e+03
  3.621691e+01    8.304469e+03
  3.623979e+01    9.280068e+03
  3.626268e+01    1.049575e+04
  3.628556e+01    1.146542e+04
  3.630845e+01    1.168275e+04
  3.633133e+01    1.106428e+04
  3.635422e+01    9.955260e+03
  3.637710e+01    8.840387e+03
  3.639999e+01    8.023640e+03
  3.642288e+01    7.542894e+03
  3.644576e+01    7.289621e+03
  3.646865e+01    7.164132e+03
  3.649153e+01    7.093905e+03
  3.651442e+01    7.043288e+03
  3.653730e+01    7.025861e+03
  3.656019e+01    7.010178e+03
  3.658307e+01    6.991988e+03
  3.660596e+01    6.983281e+03
  3.662884e+01    6.979427e+03
  3.665173e+01    6.975122e+03
  3.667461e+01    6.976048e+03
  3.669750e+01    6.979272e+03
  3.672039e+01    6.984959e+03
  3.674327e+01    6.993646e+03
  3.676616e+01    6.996010e+03
  3.678904e+01    6.999979e+03
  3.681193e+01    7.010449e+03
  3.683481e+01    7.018667e+03
  3.685770e+01    7.021012e+03
  3.688058e+01    7.042050e+03
  3.690347e+01    7.057096e+03
  3.692635e+01    7.074878e+03
  3.694924e+01    7.080826e+03
  3.697212e+01    7.100989e+03
  3.699501e+01    7.134264e+03
  3.701790e+01    7.158184e+03
  3.704078e+01    7.181953e+03
  3.706367e+01    7.205140e+03
  3.708655e+01    7.237792e+03
  3.710944e+01    7.290156e+03
  3.713232e+01    7.334128e+03
  3.715521e+01    7.397021e+03
  3.717809e+01    7.467279e+03
  3.720098e+01    7.546109e+03
  3.722386e+01    7.653477e+03
  3.724675e+01    7.781529e+03
  3.726963e+01    7.947979e+03
  3.729252e+01    8.181725e+03
  3.731541e+01    8.505136e+03
  3.733829e+01    8.986613e+03
  3.736118e+01    9.753775e+03
  3.738406e+01    1.106492e+04
  3.740695e+01    1.345218e+04
  3.742983e+01    1.791543e+04
  3.745272e+01    2.596711e+04
  3.747560e+01    3.856278e+04
  3.749849e+01    5.350742e+04
  3.752137e+01    6.420412e+04
  3.754426e+01    6.496415e+04
  3.756714e+01    5.604665e+04
  3.759003e+01    4.216243e+04
  3.761291e+01    2.895500e+04
  3.763580e+01    1.975794e+04
  3.765869e+01    1.449396e+04
  3.768157e+01    1.168953e+04
  3.770446e+01    1.016147e+04
  3.772734e+01    9.272817e+03
  3.775023e+01    8.721347e+03
  3.777311e+01    8.348205e+03
  3.779600e+01    8.094393e+03
  3.781888e+01    7.904068e+03
  3.784177e+01    7.766566e+03
  3.786465e+01    7.648194e+03
  3.788754e+01    7.558721e+03
  3.791042e+01    7.497213e+03
  3.793331e+01    7.445350e+03
  3.795620e+01    7.393083e+03
  3.797908e+01    7.336718e+03
  3.800197e+01    7.298405e+03
  3.802485e+01    7.270808e+03
  3.804774e+01    7.239468e+03
  3.807062e+01    7.218052e+03
  3.809351e+01    7.202500e+03
  3.811639e+01    7.192018e+03
  3.813928e+01    7.173520e+03
  3.816216e+01    7.149706e+03
  3.818505e+01    7.132522e+03
  3.820793e+01    7.115455e+03
  3.823082e+01    7.098614e+03
  3.825371e+01    7.095764e+03
  3.827659e+01    7.095116e+03
  3.829948e+01    7.099014e+03
  3.832236e+01    7.092175e+03
  3.834525e+01    7.081146e+03
  3.836813e+01    7.081777e+03
  3.839102e+01    7.072654e+03
  3.841390e+01    7.069801e+03
  3.843679e+01    7.073181e+03
  3.845967e+01    7.085854e+03
  3.848256e+01    7.090880e+03
  3.850544e+01    7.105612e+03
  3.852833e+01    7.121426e+03
  3.855121e+01    7.143318e+03
  3.857410e+01    7.177079e+03
  3.859699e+01    7.238388e+03
  3.861987e+01    7.370569e+03
  3.864276e+01    7.617249e+03
  3.866564e+01    8.024281e+03
  3.868853e+01    8.579251e+03
  3.871141e+01    9.063213e+03
  3.873430e+01    9.233075e+03
  3.875718e+01    9.015828e+03
  3.878007e+01    8.544217e+03
  3.880295e+01    8.005019e+03
  3.882584e+01    7.603107e+03
  3.884872e+01    7.358619e+03
  3.887161e+01    7.215481e+03
  3.889450e+01    7.143424e+03
  3.891738e+01    7.104691e+03
  3.894027e+01    7.079156e+03
  3.896315e+01    7.057800e+03
  3.898604e+01    7.041116e+03
  3.900892e+01    7.028608e+03
  3.903181e+01    7.015442e+03
  3.905469e+01    7.003529e+03
  3.907758e+01    6.996437e+03
  3.910046e+01    6.994374e+03
  3.912335e+01    6.987771e+03
  3.914623e+01    6.982991e+03
  3.916912e+01    6.983824e+03
  3.919201e+01    6.990946e+03
  3.921489e+01    6.972859e+03
  3.923778e+01    6.962335e+03
  3.926066e+01    6.959493e+03
  3.928355e+01    6.959588e+03
  3.930643e+01    6.955100e+03
  3.932932e+01    6.949732e+03
  3.935220e+01    6.947677e+03
  3.937509e+01    6.949362e+03
  3.939797e+01    6.938233e+03
  3.942086e+01    6.924282e+03
  3.944374e+01    6.903381e+03
  3.946663e+01    6.897464e+03
  3.948951e+01    6.894854e+03
  3.951240e+01    6.885211e+03
  3.953529e+01    6.877792e+03
  3.955817e+01    6.875423e+03
  3.958106e+01    6.870264e+03
  3.960394e+01    6.862172e+03
  3.962683e+01    6.855328e+03
  3.964971e+01    6.850916e+03
  3.967260e+01    6.847594e+03
  3.969548e+01    6.844212e+03
  3.971837e+01    6.844183e+03
  3.974125e+01    6.847997e+03
  3.976414e+01    6.863840e+03
  3.978702e+01    6.897048e+03
  3.980991e+01    6.953302e+03
  3.983280e+01    7.048229e+03
  3.985568e+01    7.195949e+03
  3.987857e+01    7.328593e+03
  3.990145e+01    7.379904e+03
  3.992434e+01    7.304430e+03
  3.994722e+01    7.173071e+03
  3.997011e+01    7.033646e+03
  3.999299e+01    6.920923e+03
  4.001588e+01    6.855948e+03
  4.003876e+01    6.815540e+03
  4.006165e+01    6.801130e+03
  4.008453e+01    6.798318e+03
  4.010742e+01    6.787944e+03
  4.013031e+01    6.767876e+03
  4.015319e+01    6.756689e+03
  4.017608e+01    6.751767e+03
  4.019896e+01    6.745971e+03
  4.022185e+01    6.740881e+03
  4.024473e+01    6.739350e+03
  4.026762e+01    6.739472e+03
  4.029050e+01    6.737820e+03
  4.031339e+01    6.729947e+03
  4.033627e+01    6.729142e+03
  4.035916e+01    6.727102e+03
  4.038204e+01    6.719744e+03
  4.040493e+01    6.716366e+03
  4.042782e+01    6.713517e+03
  4.045070e+01    6.708019e+03
  4.047359e+01    6.705213e+03
  4.049647e+01    6.699313e+03
  4.051936e+01    6.692479e+03
  4.054224e+01    6.688735e+03
  4.056513e+01    6.688669e+03
  4.058801e+01    6.687832e+03
  4.061090e+01    6.684930e+03
  4.063378e+01    6.693912e+03
  4.065667e+01    6.701858e+03
  4.067955e+01    6.694129e+03
  4.070244e+01    6.698666e+03
  4.072532e+01    6.710789e+03
  4.074821e+01    6.719726e+03
  4.077110e+01    6.736724e+03
  4.079398e+01    6.766657e+03
  4.081687e+01    6.795190e+03
  4.083975e+01    6.837313e+03
  4.086264e+01    6.912807e+03
  4.088552e+01    7.039977e+03
  4.090841e+01    7.266402e+03
  4.093129e+01    7.715851e+03
  4.095418e+01    8.549736e+03
  4.097706e+01    9.853115e+03
  4.099995e+01    1.143891e+04
  4.102283e+01    1.261241e+04
  4.104572e+01    1.276520e+04
  4.106861e+01    1.190788e+04
  4.109149e+01    1.050034e+04
  4.111438e+01    9.076642e+03
  4.113726e+01    8.033394e+03
  4.116015e+01    7.424772e+03
  4.118303e+01    7.106203e+03
  4.120592e+01    6.931050e+03
  4.122880e+01    6.838596e+03
  4.125169e+01    6.777571e+03
  4.127457e+01    6.737136e+03
  4.129746e+01    6.713957e+03
  4.132034e+01    6.675214e+03
  4.134323e+01    6.659020e+03
  4.136612e+01    6.658137e+03
  4.138900e+01    6.644860e+03
  4.141189e+01    6.628391e+03
  4.143477e+01    6.615636e+03
  4.145766e+01    6.607822e+03
  4.148054e+01    6.594047e+03
  4.150343e+01    6.589676e+03
  4.152631e+01    6.594087e+03
  4.154920e+01    6.603199e+03
  4.157208e+01    6.597938e+03
  4.159497e+01    6.600704e+03
  4.161785e+01    6.603749e+03
  4.164074e+01    6.599503e+03
  4.166362e+01    6.595966e+03
  4.168651e+01    6.598693e+03
  4.170940e+01    6.589648e+03
  4.173228e+01    6.576496e+03
  4.175517e+01    6.574470e+03
  4.177805e+01    6.573381e+03
  4.180094e+01    6.573964e+03
  4.182382e+01    6.571986e+03
  4.184671e+01    6.568654e+03
  4.186959e+01    6.570522e+03
  4.189248e+01    6.566587e+03
  4.191536e+01    6.571385e+03
  4.193825e+01    6.584659e+03
  4.196113e+01    6.597500e+03
  4.198402e+01    6.610350e+03
  4.200691e+01    6.646126e+03
  4.202979e+01    6.711382e+03
  4.205268e+01    6.834609e+03
  4.207556e+01    7.046637e+03
  4.209845e+01    7.357526e+03
  4.212133e+01    7.675432e+03
  4.214422e+01    7.838130e+03
  4.216710e+01    7.782301e+03
  4.218999e+01    7.550125e+03
  4.221287e+01    7.235941e+03
  4.223576e+01    6.954018e+03
  4.225864e+01    6.770693e+03
  4.228153e+01    6.667276e+03
  4.230442e+01    6.614733e+03
  4.232730e+01    6.582028e+03
  4.235019e+01    6.571951e+03
  4.237307e+01    6.567996e+03
  4.239596e+01    6.564761e+03
  4.241884e+01    6.562148e+03
  4.244173e+01    6.552069e+03
  4.246461e+01    6.546285e+03
  4.248750e+01    6.538763e+03
  4.251038e+01    6.538533e+03
  4.253327e+01    6.532305e+03
  4.255615e+01    6.522453e+03
  4.257904e+01    6.516966e+03
  4.260192e+01    6.520708e+03
  4.262481e+01    6.524554e+03
  4.264770e+01    6.523415e+03
  4.267058e+01    6.532514e+03
  4.269347e+01    6.531403e+03
  4.271635e+01    6.531619e+03
  4.273924e+01    6.533676e+03
  4.276212e+01    6.533452e+03
  4.278501e+01    6.532761e+03
  4.280789e+01    6.540400e+03
  4.283078e+01    6.544985e+03
  4.285366e+01    6.561014e+03
  4.287655e+01    6.565541e+03
  4.289943e+01    6.578797e+03
  4.292232e+01    6.592166e+03
  4.294521e+01    6.620543e+03
  4.296809e+01    6.639896e+03
  4.299098e+01    6.652405e+03
  4.301386e+01    6.677872e+03
  4.303675e+01    6.721748e+03
  4.305963e+01    6.779270e+03
  4.308252e+01    6.871235e+03
  4.310540e+01    7.054257e+03
  4.312829e+01    7.402871e+03
  4.315117e+01    8.040412e+03
  4.317406e+01    9.075829e+03
  4.319694e+01    1.041842e+04
  4.321983e+01    1.151109e+04
  4.324272e+01    1.179710e+04
  4.326560e+01    1.124755e+04
  4.328849e+01    1.014916e+04
  4.331137e+01    8.964372e+03
  4.333426e+01    8.050805e+03
  4.335714e+01    7.533705e+03
  4.338003e+01    7.300541e+03
  4.340291e+01    7.224550e+03
  4.342580e+01    7.254178e+03
  4.344868e+01    7.369478e+03
  4.347157e+01    7.623253e+03
  4.349445e+01    8.136274e+03
  4.351734e+01    9.126948e+03
  4.354022e+01    1.094050e+04
  4.356311e+01    1.439811e+04
  4.358600e+01    1.996458e+04
  4.360888e+01    2.477755e+04
  4.363177e+01    2.701649e+04
  4.365465e+01    2.530358e+04
  4.367754e+01    2.066481e+04
  4.370042e+01    1.551304e+04
  4.372331e+01    1.174910e+04
  4.374619e+01    9.543857e+03
  4.376908e+01    8.357940e+03
  4.379196e+01    7.698471e+03
  4.381485e+01    7.334309e+03
  4.383773e+01    7.112935e+03
  4.386062e+01    6.978711e+03
  4.388351e+01    6.902427e+03
  4.390639e+01    6.851093e+03
  4.392928e+01    6.810950e+03
  4.395216e+01    6.803805e+03
  4.397505e+01    6.814314e+03
  4.399793e+01    6.831596e+03
  4.402082e+01    6.856945e+03
  4.404370e+01    6.910666e+03
  4.406659e+01    6.986688e+03
  4.408947e+01    7.092273e+03
  4.411236e+01    7.292347e+03
  4.413524e+01    7.606600e+03
  4.415813e+01    8.124255e+03
  4.418102e+01    9.096111e+03
  4.420390e+01    1.094501e+04
  4.422679e+01    1.423092e+04
  4.424967e+01    1.924892e+04
  4.427256e+01    2.476556e+04
  4.429544e+01    2.808241e+04
  4.431833e+01    2.767087e+04
  4.434121e+01    2.416479e+04
  4.436410e+01    1.904888e+04
  4.438698e+01    1.421484e+04
  4.440987e+01    1.091017e+04
  4.443275e+01    9.055287e+03
  4.445564e+01    8.081756e+03
  4.447853e+01    7.562061e+03
  4.450141e+01    7.244291e+03
  4.452430e+01    7.030165e+03
  4.454718e+01    6.881110e+03
  4.457007e+01    6.772490e+03
  4.459295e+01    6.711579e+03
  4.461584e+01    6.662397e+03
  4.463872e+01    6.614996e+03
  4.466161e+01    6.568210e+03
  4.468449e+01    6.535182e+03
  4.470738e+01    6.514571e+03
  4.473026e+01    6.494119e+03
  4.475315e+01    6.485539e+03
  4.477603e+01    6.475400e+03
  4.479892e+01    6.451559e+03
  4.482181e+01    6.434192e+03
  4.484469e+01    6.429069e+03
  4.486758e+01    6.418833e+03
  4.489046e+01    6.404948e+03
  4.491335e+01    6.402669e+03
  4.493623e+01    6.411609e+03
  4.495912e+01    6.409653e+03
  4.498200e+01    6.411748e+03
  4.500489e+01    6.407222e+03
  4.502777e+01    6.420108e+03
  4.505066e+01    6.424565e+03
  4.507354e+01    6.440565e+03
  4.509643e+01    6.464014e+03
  4.511932e+01    6.480804e+03
  4.514220e+01    6.522553e+03
  4.516509e+01    6.574142e+03
  4.518797e+01    6.680220e+03
  4.521086e+01    6.862081e+03
  4.523374e+01    7.194110e+03
  4.525663e+01    7.816826e+03
  4.527951e+01    8.889685e+03
  4.530240e+01    1.037936e+04
  4.532528e+01    1.178673e+04
  4.534817e+01    1.240567e+04
  4.537105e+01    1.199837e+04
  4.539394e+01    1.081514e+04
  4.541683e+01    9.353186e+03
  4.543971e+01    8.123708e+03
  4.546260e+01    7.338166e+03
  4.548548e+01    6.906424e+03
  4.550837e+01    6.681649e+03
  4.553125e+01    6.557768e+03
  4.555414e+01    6.469397e+03
  4.557702e+01    6.412108e+03
  4.559991e+01    6.367727e+03
  4.562279e+01    6.320185e+03
  4.564568e+01    6.306775e+03
  4.566856e+01    6.294167e+03
  4.569145e+01    6.288112e+03
  4.571433e+01    6.275229e+03
  4.573722e+01    6.258184e+03
  4.576011e+01    6.253159e+03
  4.578299e+01    6.247840e+03
  4.580588e+01    6.233712e+03
  4.582876e+01    6.215760e+03
  4.585165e+01    6.221545e+03
  4.587453e+01    6.217359e+03
  4.589742e+01    6.207121e+03
  4.592030e+01    6.196534e+03
  4.594319e+01    6.203949e+03
  4.596607e+01    6.200277e+03
  4.598896e+01    6.184129e+03
  4.601184e+01    6.182821e+03
  4.603473e+01    6.168365e+03
  4.605762e+01    6.179151e+03
  4.608050e+01    6.175768e+03
  4.610339e+01    6.179007e+03
  4.612627e+01    6.195617e+03
  4.614916e+01    6.192854e+03
  4.617204e+01    6.204988e+03
  4.619493e+01    6.224555e+03
  4.621781e+01    6.262438e+03
  4.624070e+01    6.321508e+03
  4.626358e+01    6.452926e+03
  4.628647e+01    6.659233e+03
  4.630935e+01    7.024750e+03
  4.633224e+01    7.540048e+03
  4.635513e+01    7.957979e+03
  4.637801e+01    8.084652e+03
  4.640090e+01    7.906860e+03
  4.642378e+01    7.501178e+03
  4.644667e+01    7.039659e+03
  4.646955e+01    6.680563e+03
  4.649244e+01    6.473333e+03
  4.651532e+01    6.353859e+03
  4.653821e+01    6.285344e+03
  4.656109e+01    6.253410e+03
  4.658398e+01    6.229535e+03
  4.660686e+01    6.227106e+03
  4.662975e+01    6.216836e+03
  4.665263e+01    6.208044e+03
  4.667552e+01    6.204423e+03
  4.669841e+01    6.200794e+03
  4.672129e+01    6.200958e+03
  4.674418e+01    6.192689e+03
  4.676706e+01    6.196428e+03
  4.678995e+01    6.212217e+03
  4.681283e+01    6.211125e+03
  4.683572e+01    6.225315e+03
  4.685860e+01    6.216371e+03
  4.688149e+01    6.226326e+03
  4.690437e+01    6.237007e+03
  4.692726e+01    6.250169e+03
  4.695014e+01    6.261680e+03
  4.697303e+01    6.266583e+03
  4.699592e+01    6.280916e+03
  4.701880e+01    6.291625e+03
  4.704169e+01    6.309386e+03
  4.706457e+01    6.328239e+03
  4.708746e+01    6.349373e+03
  4.711034e+01    6.369459e+03
  4.713323e+01    6.395994e+03
  4.715611e+01    6.392463e+03
  4.717900e+01    6.406356e+03
  4.720188e+01    6.450745e+03
  4.722477e+01    6.500792e+03
  4.724765e+01    6.565598e+03
  4.727054e+01    6.651264e+03
  4.729343e+01    6.824151e+03
  4.731631e+01    7.081755e+03
  4.733920e+01    7.413623e+03
  4.736208e+01    7.713702e+03
  4.738497e+01    7.839334e+03
  4.740785e+01    7.774467e+03
  4.743074e+01    7.549920e+03
  4.745362e+01    7.257038e+03
  4.747651e+01    7.084983e+03
  4.749939e+01    7.011751e+03
  4.752228e+01    6.980370e+03
  4.754516e+01    6.984653e+03
  4.756805e+01    6.946367e+03
  4.759094e+01    7.044292e+03
  4.761382e+01    7.115940e+03
  4.763671e+01    7.150282e+03
  4.765959e+01    7.134971e+03
  4.768248e+01    7.138003e+03
  4.770536e+01    7.105582e+03
  4.772825e+01    7.002821e+03
  4.775113e+01    7.047358e+03
  4.777402e+01    6.907202e+03
  4.779690e+01    6.896607e+03
  4.781979e+01    6.669979e+03
  4.784267e+01    6.422667e+03
  4.786556e+01    5.510752e+03
  4.788844e+01    2.678589e+03