File: Output/ROCK_XRD/WAM39B_integrated/rampe2/wam39b_rampe_2_xrd_000009_integrated.dat
# == pyFAI calibration ==
# Distance Sample to Detector: 0.261615 m
# PONI: 2.023e-01, 2.348e-01 m
# Rotations: -0.026380 0.002005 0.000000 rad
#
# == Fit2d calibration ==
# Distance Sample-beamCenter: 261.707 mm
# Center: x=6119.331, y=5134.776 pix
# Tilt: 1.516 deg  TiltPlanRot: 4.347 deg
#
# Detector Rayonix SX165	 PixelSize= 3.950e-05, 3.950e-05 m
#    Detector has a mask: True
#    Detector has a dark current: False
#    detector has a flat field: False
#
# Wavelength: 1.12713e-10 m
# Mask applied: from detector
# Dark current applied: False
# Flat field applied: False
# Polarization factor: None
# Normalization factor: 1.0
# --> ROCK\\WAM39B_integrated\wam39b_rampe_2_xrd_000009_integrated.dat
#       2th_deg             I
  2.502596e+01    4.313230e+03
  2.504885e+01    1.132389e+04
  2.507173e+01    1.524937e+04
  2.509462e+01    1.621395e+04
  2.511750e+01    1.774131e+04
  2.514039e+01    1.838050e+04
  2.516327e+01    1.828967e+04
  2.518616e+01    1.810438e+04
  2.520905e+01    1.797301e+04
  2.523193e+01    1.775913e+04
  2.525482e+01    1.783421e+04
  2.527770e+01    1.817170e+04
  2.530059e+01    1.809398e+04
  2.532347e+01    1.790331e+04
  2.534636e+01    1.773632e+04
  2.536924e+01    1.763550e+04
  2.539213e+01    1.759525e+04
  2.541501e+01    1.757536e+04
  2.543790e+01    1.756955e+04
  2.546078e+01    1.758740e+04
  2.548367e+01    1.753034e+04
  2.550656e+01    1.737523e+04
  2.552944e+01    1.728158e+04
  2.555233e+01    1.749549e+04
  2.557521e+01    1.759294e+04
  2.559810e+01    1.755982e+04
  2.562098e+01    1.760782e+04
  2.564387e+01    1.767593e+04
  2.566675e+01    1.774604e+04
  2.568964e+01    1.772647e+04
  2.571252e+01    1.770404e+04
  2.573541e+01    1.773087e+04
  2.575829e+01    1.770849e+04
  2.578118e+01    1.763296e+04
  2.580407e+01    1.761790e+04
  2.582695e+01    1.761566e+04
  2.584984e+01    1.758959e+04
  2.587272e+01    1.755938e+04
  2.589561e+01    1.759073e+04
  2.591849e+01    1.754225e+04
  2.594138e+01    1.750528e+04
  2.596426e+01    1.752194e+04
  2.598715e+01    1.744675e+04
  2.601003e+01    1.746235e+04
  2.603292e+01    1.744290e+04
  2.605580e+01    1.742890e+04
  2.607869e+01    1.748985e+04
  2.610157e+01    1.757457e+04
  2.612446e+01    1.772253e+04
  2.614735e+01    1.795353e+04
  2.617023e+01    1.829905e+04
  2.619312e+01    1.885629e+04
  2.621600e+01    1.974120e+04
  2.623889e+01    2.103938e+04
  2.626177e+01    2.317202e+04
  2.628466e+01    2.635505e+04
  2.630754e+01    3.064684e+04
  2.633043e+01    3.567339e+04
  2.635331e+01    4.099044e+04
  2.637620e+01    4.622949e+04
  2.639908e+01    5.007307e+04
  2.642197e+01    5.037135e+04
  2.644486e+01    4.601311e+04
  2.646774e+01    3.915028e+04
  2.649063e+01    3.209905e+04
  2.651351e+01    2.669304e+04
  2.653640e+01    2.300267e+04
  2.655928e+01    2.060958e+04
  2.658217e+01    1.908268e+04
  2.660505e+01    1.809770e+04
  2.662794e+01    1.744581e+04
  2.665082e+01    1.696712e+04
  2.667371e+01    1.662633e+04
  2.669659e+01    1.636045e+04
  2.671948e+01    1.614868e+04
  2.674237e+01    1.599388e+04
  2.676525e+01    1.585731e+04
  2.678814e+01    1.573108e+04
  2.681102e+01    1.563664e+04
  2.683391e+01    1.555022e+04
  2.685679e+01    1.548730e+04
  2.687968e+01    1.544714e+04
  2.690256e+01    1.535600e+04
  2.692545e+01    1.529070e+04
  2.694833e+01    1.522405e+04
  2.697122e+01    1.514994e+04
  2.699410e+01    1.508402e+04
  2.701699e+01    1.506257e+04
  2.703988e+01    1.499059e+04
  2.706276e+01    1.495240e+04
  2.708565e+01    1.493259e+04
  2.710853e+01    1.488130e+04
  2.713142e+01    1.483007e+04
  2.715430e+01    1.477993e+04
  2.717719e+01    1.473239e+04
  2.720007e+01    1.467632e+04
  2.722296e+01    1.463776e+04
  2.724584e+01    1.458839e+04
  2.726873e+01    1.457168e+04
  2.729161e+01    1.453183e+04
  2.731450e+01    1.448676e+04
  2.733738e+01    1.443356e+04
  2.736027e+01    1.438830e+04
  2.738316e+01    1.435811e+04
  2.740604e+01    1.432975e+04
  2.742893e+01    1.430544e+04
  2.745181e+01    1.429066e+04
  2.747470e+01    1.425719e+04
  2.749758e+01    1.422672e+04
  2.752047e+01    1.419840e+04
  2.754335e+01    1.418465e+04
  2.756624e+01    1.418222e+04
  2.758912e+01    1.416208e+04
  2.761201e+01    1.413559e+04
  2.763489e+01    1.411766e+04
  2.765778e+01    1.411719e+04
  2.768067e+01    1.411746e+04
  2.770355e+01    1.412539e+04
  2.772644e+01    1.411676e+04
  2.774932e+01    1.412504e+04
  2.777221e+01    1.417095e+04
  2.779509e+01    1.423701e+04
  2.781798e+01    1.436196e+04
  2.784086e+01    1.452701e+04
  2.786375e+01    1.481009e+04
  2.788663e+01    1.528482e+04
  2.790952e+01    1.604425e+04
  2.793240e+01    1.710324e+04
  2.795529e+01    1.818297e+04
  2.797818e+01    1.877875e+04
  2.800106e+01    1.852537e+04
  2.802395e+01    1.755856e+04
  2.804683e+01    1.637104e+04
  2.806972e+01    1.538238e+04
  2.809260e+01    1.471680e+04
  2.811549e+01    1.429655e+04
  2.813837e+01    1.402774e+04
  2.816126e+01    1.383978e+04
  2.818414e+01    1.369803e+04
  2.820703e+01    1.358190e+04
  2.822991e+01    1.347302e+04
  2.825280e+01    1.338107e+04
  2.827568e+01    1.331609e+04
  2.829857e+01    1.325116e+04
  2.832146e+01    1.318950e+04
  2.834434e+01    1.312001e+04
  2.836723e+01    1.305449e+04
  2.839011e+01    1.299412e+04
  2.841300e+01    1.293413e+04
  2.843588e+01    1.288842e+04
  2.845877e+01    1.282505e+04
  2.848165e+01    1.276788e+04
  2.850454e+01    1.273138e+04
  2.852742e+01    1.270112e+04
  2.855031e+01    1.267136e+04
  2.857319e+01    1.260851e+04
  2.859608e+01    1.255518e+04
  2.861897e+01    1.251238e+04
  2.864185e+01    1.246566e+04
  2.866474e+01    1.243509e+04
  2.868762e+01    1.239077e+04
  2.871051e+01    1.236542e+04
  2.873339e+01    1.234695e+04
  2.875628e+01    1.231759e+04
  2.877916e+01    1.228627e+04
  2.880205e+01    1.225080e+04
  2.882493e+01    1.223288e+04
  2.884782e+01    1.220997e+04
  2.887070e+01    1.218361e+04
  2.889359e+01    1.216619e+04
  2.891648e+01    1.213217e+04
  2.893936e+01    1.209832e+04
  2.896225e+01    1.206255e+04
  2.898513e+01    1.202368e+04
  2.900802e+01    1.198132e+04
  2.903090e+01    1.192833e+04
  2.905379e+01    1.187034e+04
  2.907667e+01    1.182444e+04
  2.909956e+01    1.177087e+04
  2.912244e+01    1.170671e+04
  2.914533e+01    1.164678e+04
  2.916821e+01    1.159595e+04
  2.919110e+01    1.154391e+04
  2.921398e+01    1.149335e+04
  2.923687e+01    1.145476e+04
  2.925976e+01    1.140398e+04
  2.928264e+01    1.136295e+04
  2.930553e+01    1.133650e+04
  2.932841e+01    1.130058e+04
  2.935130e+01    1.126774e+04
  2.937418e+01    1.125623e+04
  2.939707e+01    1.130496e+04
  2.941995e+01    1.138103e+04
  2.944284e+01    1.153681e+04
  2.946572e+01    1.184317e+04
  2.948861e+01    1.223067e+04
  2.951149e+01    1.257820e+04
  2.953438e+01    1.269623e+04
  2.955727e+01    1.247304e+04
  2.958015e+01    1.201886e+04
  2.960304e+01    1.155937e+04
  2.962592e+01    1.119568e+04
  2.964881e+01    1.094828e+04
  2.967169e+01    1.078868e+04
  2.969458e+01    1.069385e+04
  2.971746e+01    1.062430e+04
  2.974035e+01    1.056737e+04
  2.976323e+01    1.051868e+04
  2.978612e+01    1.048920e+04
  2.980900e+01    1.045829e+04
  2.983189e+01    1.042289e+04
  2.985478e+01    1.039144e+04
  2.987766e+01    1.036299e+04
  2.990055e+01    1.034748e+04
  2.992343e+01    1.033501e+04
  2.994632e+01    1.031840e+04
  2.996920e+01    1.030148e+04
  2.999209e+01    1.029364e+04
  3.001497e+01    1.029976e+04
  3.003786e+01    1.030196e+04
  3.006074e+01    1.030193e+04
  3.008363e+01    1.030419e+04
  3.010651e+01    1.031004e+04
  3.012940e+01    1.031577e+04
  3.015228e+01    1.030861e+04
  3.017517e+01    1.031941e+04
  3.019806e+01    1.035713e+04
  3.022094e+01    1.037917e+04
  3.024383e+01    1.040579e+04
  3.026671e+01    1.045811e+04
  3.028960e+01    1.053291e+04
  3.031248e+01    1.062876e+04
  3.033537e+01    1.077086e+04
  3.035825e+01    1.095689e+04
  3.038114e+01    1.121900e+04
  3.040402e+01    1.162729e+04
  3.042691e+01    1.223789e+04
  3.044979e+01    1.321344e+04
  3.047268e+01    1.482862e+04
  3.049557e+01    1.750352e+04
  3.051845e+01    2.182254e+04
  3.054134e+01    2.837288e+04
  3.056422e+01    3.715256e+04
  3.058711e+01    4.569568e+04
  3.060999e+01    4.994343e+04
  3.063288e+01    4.770165e+04
  3.065576e+01    4.066377e+04
  3.067865e+01    3.230167e+04
  3.070153e+01    2.529524e+04
  3.072442e+01    2.022537e+04
  3.074730e+01    1.689907e+04
  3.077019e+01    1.478877e+04
  3.079308e+01    1.350099e+04
  3.081596e+01    1.273914e+04
  3.083885e+01    1.238156e+04
  3.086173e+01    1.240468e+04
  3.088462e+01    1.291091e+04
  3.090750e+01    1.413456e+04
  3.093039e+01    1.645445e+04
  3.095327e+01    2.004429e+04
  3.097616e+01    2.419267e+04
  3.099904e+01    2.705654e+04
  3.102193e+01    2.699408e+04
  3.104481e+01    2.406808e+04
  3.106770e+01    1.983556e+04
  3.109059e+01    1.601241e+04
  3.111347e+01    1.340235e+04
  3.113636e+01    1.184804e+04
  3.115924e+01    1.095928e+04
  3.118213e+01    1.045083e+04
  3.120501e+01    1.014132e+04
  3.122790e+01    9.933261e+03
  3.125078e+01    9.786904e+03
  3.127367e+01    9.659427e+03
  3.129655e+01    9.562054e+03
  3.131944e+01    9.492121e+03
  3.134232e+01    9.429775e+03
  3.136521e+01    9.378902e+03
  3.138809e+01    9.333027e+03
  3.141098e+01    9.295209e+03
  3.143387e+01    9.273450e+03
  3.145675e+01    9.252587e+03
  3.147964e+01    9.223723e+03
  3.150252e+01    9.188598e+03
  3.152541e+01    9.155994e+03
  3.154829e+01    9.121116e+03
  3.157118e+01    9.099167e+03
  3.159406e+01    9.079664e+03
  3.161695e+01    9.061435e+03
  3.163983e+01    9.033558e+03
  3.166272e+01    9.013396e+03
  3.168560e+01    9.000622e+03
  3.170849e+01    8.986198e+03
  3.173138e+01    8.966377e+03
  3.175426e+01    8.934649e+03
  3.177715e+01    8.915553e+03
  3.180003e+01    8.904939e+03
  3.182292e+01    8.888917e+03
  3.184580e+01    8.879329e+03
  3.186869e+01    8.865209e+03
  3.189157e+01    8.848511e+03
  3.191446e+01    8.835619e+03
  3.193734e+01    8.816157e+03
  3.196023e+01    8.803913e+03
  3.198311e+01    8.791732e+03
  3.200600e+01    8.774016e+03
  3.202889e+01    8.760236e+03
  3.205177e+01    8.744722e+03
  3.207466e+01    8.733226e+03
  3.209754e+01    8.713883e+03
  3.212043e+01    8.706111e+03
  3.214331e+01    8.698309e+03
  3.216620e+01    8.690549e+03
  3.218908e+01    8.675004e+03
  3.221197e+01    8.672478e+03
  3.223485e+01    8.686718e+03
  3.225774e+01    8.709514e+03
  3.228062e+01    8.746011e+03
  3.230351e+01    8.812380e+03
  3.232639e+01    8.938838e+03
  3.234928e+01    9.169442e+03
  3.237217e+01    9.524105e+03
  3.239505e+01    9.912326e+03
  3.241794e+01    1.016653e+04
  3.244082e+01    1.013864e+04
  3.246371e+01    9.852426e+03
  3.248659e+01    9.460566e+03
  3.250948e+01    9.121282e+03
  3.253236e+01    8.896332e+03
  3.255525e+01    8.755435e+03
  3.257813e+01    8.676910e+03
  3.260102e+01    8.632430e+03
  3.262390e+01    8.609183e+03
  3.264679e+01    8.593873e+03
  3.266968e+01    8.573896e+03
  3.269256e+01    8.552815e+03
  3.271545e+01    8.530456e+03
  3.273833e+01    8.512855e+03
  3.276122e+01    8.488397e+03
  3.278410e+01    8.453565e+03
  3.280699e+01    8.422974e+03
  3.282987e+01    8.395806e+03
  3.285276e+01    8.367590e+03
  3.287564e+01    8.338270e+03
  3.289853e+01    8.314501e+03
  3.292141e+01    8.279149e+03
  3.294430e+01    8.256180e+03
  3.296719e+01    8.237565e+03
  3.299007e+01    8.217937e+03
  3.301296e+01    8.201007e+03
  3.303584e+01    8.184527e+03
  3.305873e+01    8.170310e+03
  3.308161e+01    8.156198e+03
  3.310450e+01    8.142533e+03
  3.312738e+01    8.131785e+03
  3.315027e+01    8.125200e+03
  3.317315e+01    8.108619e+03
  3.319604e+01    8.095326e+03
  3.321892e+01    8.089349e+03
  3.324181e+01    8.083657e+03
  3.326469e+01    8.079027e+03
  3.328758e+01    8.079616e+03
  3.331047e+01    8.077825e+03
  3.333335e+01    8.066948e+03
  3.335624e+01    8.054360e+03
  3.337912e+01    8.048827e+03
  3.340201e+01    8.052410e+03
  3.342489e+01    8.060090e+03
  3.344778e+01    8.063659e+03
  3.347066e+01    8.071467e+03
  3.349355e+01    8.089034e+03
  3.351643e+01    8.111661e+03
  3.353932e+01    8.144301e+03
  3.356220e+01    8.201915e+03
  3.358509e+01    8.288196e+03
  3.360798e+01    8.427561e+03
  3.363086e+01    8.664950e+03
  3.365375e+01    9.091036e+03
  3.367663e+01    9.872205e+03
  3.369952e+01    1.130935e+04
  3.372240e+01    1.367167e+04
  3.374529e+01    1.680536e+04
  3.376817e+01    1.965216e+04
  3.379106e+01    2.074102e+04
  3.381394e+01    1.951257e+04
  3.383683e+01    1.667386e+04
  3.385971e+01    1.359880e+04
  3.388260e+01    1.126106e+04
  3.390549e+01    9.812270e+03
  3.392837e+01    8.993332e+03
  3.395126e+01    8.534257e+03
  3.397414e+01    8.274598e+03
  3.399703e+01    8.112375e+03
  3.401991e+01    8.001064e+03
  3.404280e+01    7.914214e+03
  3.406568e+01    7.846549e+03
  3.408857e+01    7.803712e+03
  3.411145e+01    7.774707e+03
  3.413434e+01    7.739987e+03
  3.415722e+01    7.711515e+03
  3.418011e+01    7.689234e+03
  3.420300e+01    7.668494e+03
  3.422588e+01    7.653549e+03
  3.424877e+01    7.641118e+03
  3.427165e+01    7.630424e+03
  3.429454e+01    7.622048e+03
  3.431742e+01    7.616983e+03
  3.434031e+01    7.608707e+03
  3.436319e+01    7.595917e+03
  3.438608e+01    7.583246e+03
  3.440896e+01    7.576153e+03
  3.443185e+01    7.569214e+03
  3.445473e+01    7.559294e+03
  3.447762e+01    7.545517e+03
  3.450050e+01    7.536636e+03
  3.452339e+01    7.525684e+03
  3.454628e+01    7.523516e+03
  3.456916e+01    7.512975e+03
  3.459205e+01    7.506051e+03
  3.461493e+01    7.489744e+03
  3.463782e+01    7.482158e+03
  3.466070e+01    7.474504e+03
  3.468359e+01    7.455245e+03
  3.470647e+01    7.443731e+03
  3.472936e+01    7.430371e+03
  3.475224e+01    7.412906e+03
  3.477513e+01    7.402478e+03
  3.479801e+01    7.393297e+03
  3.482090e+01    7.377453e+03
  3.484379e+01    7.358506e+03
  3.486667e+01    7.350983e+03
  3.488956e+01    7.334928e+03
  3.491244e+01    7.317112e+03
  3.493533e+01    7.301802e+03
  3.495821e+01    7.283089e+03
  3.498110e+01    7.267424e+03
  3.500398e+01    7.255562e+03
  3.502687e+01    7.239618e+03
  3.504975e+01    7.225351e+03
  3.507264e+01    7.221905e+03
  3.509552e+01    7.210497e+03
  3.511841e+01    7.202623e+03
  3.514130e+01    7.191477e+03
  3.516418e+01    7.184699e+03
  3.518707e+01    7.172631e+03
  3.520995e+01    7.163972e+03
  3.523284e+01    7.165173e+03
  3.525572e+01    7.159579e+03
  3.527861e+01    7.140887e+03
  3.530149e+01    7.126357e+03
  3.532438e+01    7.105421e+03
  3.534726e+01    7.091131e+03
  3.537015e+01    7.079774e+03
  3.539303e+01    7.066775e+03
  3.541592e+01    7.060294e+03
  3.543880e+01    7.046598e+03
  3.546169e+01    7.036168e+03
  3.548458e+01    7.035417e+03
  3.550746e+01    7.024715e+03
  3.553035e+01    7.016515e+03
  3.555323e+01    7.007189e+03
  3.557612e+01    7.000659e+03
  3.559900e+01    6.993638e+03
  3.562189e+01    6.983854e+03
  3.564477e+01    6.970325e+03
  3.566766e+01    6.967614e+03
  3.569054e+01    6.965045e+03
  3.571343e+01    6.961909e+03
  3.573631e+01    6.960559e+03
  3.575920e+01    6.954287e+03
  3.578209e+01    6.947786e+03
  3.580497e+01    6.946039e+03
  3.582786e+01    6.943778e+03
  3.585074e+01    6.943038e+03
  3.587363e+01    6.942202e+03
  3.589651e+01    6.943960e+03
  3.591940e+01    6.953383e+03
  3.594228e+01    6.952516e+03
  3.596517e+01    6.948929e+03
  3.598805e+01    6.957592e+03
  3.601094e+01    6.967194e+03
  3.603382e+01    6.967744e+03
  3.605671e+01    6.977769e+03
  3.607960e+01    6.996256e+03
  3.610248e+01    7.011210e+03
  3.612537e+01    7.026730e+03
  3.614825e+01    7.056907e+03
  3.617114e+01    7.096392e+03
  3.619402e+01    7.149533e+03
  3.621691e+01    7.242350e+03
  3.623979e+01    7.399805e+03
  3.626268e+01    7.687375e+03
  3.628556e+01    8.229992e+03
  3.630845e+01    9.137218e+03
  3.633133e+01    1.038064e+04
  3.635422e+01    1.156001e+04
  3.637710e+01    1.206554e+04
  3.639999e+01    1.166746e+04
  3.642288e+01    1.061389e+04
  3.644576e+01    9.389876e+03
  3.646865e+01    8.427588e+03
  3.649153e+01    7.827598e+03
  3.651442e+01    7.492580e+03
  3.653730e+01    7.330493e+03
  3.656019e+01    7.237993e+03
  3.658307e+01    7.176253e+03
  3.660596e+01    7.132729e+03
  3.662884e+01    7.106335e+03
  3.665173e+01    7.091596e+03
  3.667461e+01    7.083028e+03
  3.669750e+01    7.082093e+03
  3.672039e+01    7.078280e+03
  3.674327e+01    7.076412e+03
  3.676616e+01    7.070740e+03
  3.678904e+01    7.069549e+03
  3.681193e+01    7.078495e+03
  3.683481e+01    7.086828e+03
  3.685770e+01    7.085266e+03
  3.688058e+01    7.094542e+03
  3.690347e+01    7.109051e+03
  3.692635e+01    7.121137e+03
  3.694924e+01    7.128928e+03
  3.697212e+01    7.140945e+03
  3.699501e+01    7.166254e+03
  3.701790e+01    7.183231e+03
  3.704078e+01    7.200636e+03
  3.706367e+01    7.213227e+03
  3.708655e+01    7.230973e+03
  3.710944e+01    7.264044e+03
  3.713232e+01    7.292555e+03
  3.715521e+01    7.329740e+03
  3.717809e+01    7.370415e+03
  3.720098e+01    7.414900e+03
  3.722386e+01    7.476157e+03
  3.724675e+01    7.536220e+03
  3.726963e+01    7.613791e+03
  3.729252e+01    7.712265e+03
  3.731541e+01    7.825489e+03
  3.733829e+01    7.980174e+03
  3.736118e+01    8.195869e+03
  3.738406e+01    8.489514e+03
  3.740695e+01    8.909268e+03
  3.742983e+01    9.550637e+03
  3.745272e+01    1.061393e+04
  3.747560e+01    1.250162e+04
  3.749849e+01    1.603437e+04
  3.752137e+01    2.261328e+04
  3.754426e+01    3.376943e+04
  3.756714e+01    4.897180e+04
  3.759003e+01    6.291683e+04
  3.761291e+01    6.844764e+04
  3.763580e+01    6.327287e+04
  3.765869e+01    5.050357e+04
  3.768157e+01    3.586863e+04
  3.770446e+01    2.425919e+04
  3.772734e+01    1.705175e+04
  3.775023e+01    1.311830e+04
  3.777311e+01    1.102118e+04
  3.779600e+01    9.850729e+03
  3.781888e+01    9.130943e+03
  3.784177e+01    8.668748e+03
  3.786465e+01    8.344180e+03
  3.788754e+01    8.112330e+03
  3.791042e+01    7.943704e+03
  3.793331e+01    7.820680e+03
  3.795620e+01    7.720867e+03
  3.797908e+01    7.623868e+03
  3.800197e+01    7.551811e+03
  3.802485e+01    7.495349e+03
  3.804774e+01    7.441655e+03
  3.807062e+01    7.408561e+03
  3.809351e+01    7.380474e+03
  3.811639e+01    7.351238e+03
  3.813928e+01    7.320107e+03
  3.816216e+01    7.294459e+03
  3.818505e+01    7.278169e+03
  3.820793e+01    7.265557e+03
  3.823082e+01    7.239640e+03
  3.825371e+01    7.221654e+03
  3.827659e+01    7.213661e+03
  3.829948e+01    7.210837e+03
  3.832236e+01    7.203906e+03
  3.834525e+01    7.192580e+03
  3.836813e+01    7.188974e+03
  3.839102e+01    7.176538e+03
  3.841390e+01    7.176537e+03
  3.843679e+01    7.170388e+03
  3.845967e+01    7.172062e+03
  3.848256e+01    7.174002e+03
  3.850544e+01    7.180329e+03
  3.852833e+01    7.184949e+03
  3.855121e+01    7.183068e+03
  3.857410e+01    7.191201e+03
  3.859699e+01    7.205741e+03
  3.861987e+01    7.226140e+03
  3.864276e+01    7.256287e+03
  3.866564e+01    7.308626e+03
  3.868853e+01    7.402282e+03
  3.871141e+01    7.582534e+03
  3.873430e+01    7.925473e+03
  3.875718e+01    8.450536e+03
  3.878007e+01    9.046243e+03
  3.880295e+01    9.413410e+03
  3.882584e+01    9.398193e+03
  3.884872e+01    9.029837e+03
  3.887161e+01    8.479049e+03
  3.889450e+01    7.963076e+03
  3.891738e+01    7.607199e+03
  3.894027e+01    7.403547e+03
  3.896315e+01    7.285650e+03
  3.898604e+01    7.222179e+03
  3.900892e+01    7.179225e+03
  3.903181e+01    7.150309e+03
  3.905469e+01    7.134447e+03
  3.907758e+01    7.118809e+03
  3.910046e+01    7.105773e+03
  3.912335e+01    7.097642e+03
  3.914623e+01    7.089311e+03
  3.916912e+01    7.080433e+03
  3.919201e+01    7.084837e+03
  3.921489e+01    7.072285e+03
  3.923778e+01    7.057260e+03
  3.926066e+01    7.049535e+03
  3.928355e+01    7.043921e+03
  3.930643e+01    7.041027e+03
  3.932932e+01    7.034504e+03
  3.935220e+01    7.031713e+03
  3.937509e+01    7.032568e+03
  3.939797e+01    7.028105e+03
  3.942086e+01    7.030535e+03
  3.944374e+01    7.017744e+03
  3.946663e+01    7.004144e+03
  3.948951e+01    6.984783e+03
  3.951240e+01    6.975038e+03
  3.953529e+01    6.966189e+03
  3.955817e+01    6.962392e+03
  3.958106e+01    6.954507e+03
  3.960394e+01    6.941690e+03
  3.962683e+01    6.928903e+03
  3.964971e+01    6.921767e+03
  3.967260e+01    6.920277e+03
  3.969548e+01    6.915523e+03
  3.971837e+01    6.905794e+03
  3.974125e+01    6.894512e+03
  3.976414e+01    6.886733e+03
  3.978702e+01    6.895986e+03
  3.980991e+01    6.896671e+03
  3.983280e+01    6.906666e+03
  3.985568e+01    6.936804e+03
  3.987857e+01    6.988597e+03
  3.990145e+01    7.087388e+03
  3.992434e+01    7.203276e+03
  3.994722e+01    7.346011e+03
  3.997011e+01    7.444174e+03
  3.999299e+01    7.437241e+03
  4.001588e+01    7.347552e+03
  4.003876e+01    7.206213e+03
  4.006165e+01    7.071844e+03
  4.008453e+01    6.974417e+03
  4.010742e+01    6.910940e+03
  4.013031e+01    6.873013e+03
  4.015319e+01    6.854445e+03
  4.017608e+01    6.843202e+03
  4.019896e+01    6.835434e+03
  4.022185e+01    6.826005e+03
  4.024473e+01    6.816344e+03
  4.026762e+01    6.808361e+03
  4.029050e+01    6.798627e+03
  4.031339e+01    6.797215e+03
  4.033627e+01    6.865028e+03
  4.035916e+01    7.069001e+03
  4.038204e+01    7.063482e+03
  4.040493e+01    6.854198e+03
  4.042782e+01    6.779139e+03
  4.045070e+01    6.772695e+03
  4.047359e+01    6.771497e+03
  4.049647e+01    6.768252e+03
  4.051936e+01    6.765044e+03
  4.054224e+01    6.763329e+03
  4.056513e+01    6.760048e+03
  4.058801e+01    6.756775e+03
  4.061090e+01    6.759474e+03
  4.063378e+01    6.763260e+03
  4.065667e+01    6.758440e+03
  4.067955e+01    6.756234e+03
  4.070244e+01    6.758919e+03
  4.072532e+01    6.770465e+03
  4.074821e+01    6.779837e+03
  4.077110e+01    6.789555e+03
  4.079398e+01    6.794032e+03
  4.081687e+01    6.798370e+03
  4.083975e+01    6.815444e+03
  4.086264e+01    6.831083e+03
  4.088552e+01    6.853267e+03
  4.090841e+01    6.884637e+03
  4.093129e+01    6.940723e+03
  4.095418e+01    7.040454e+03
  4.097706e+01    7.188436e+03
  4.099995e+01    7.477709e+03
  4.102283e+01    8.017922e+03
  4.104572e+01    8.997992e+03
  4.106861e+01    1.049550e+04
  4.109149e+01    1.215099e+04
  4.111438e+01    1.318117e+04
  4.113726e+01    1.309667e+04
  4.116015e+01    1.205357e+04
  4.118303e+01    1.052614e+04
  4.120592e+01    9.075248e+03
  4.122880e+01    8.086238e+03
  4.125169e+01    7.531785e+03
  4.127457e+01    7.240293e+03
  4.129746e+01    7.080932e+03
  4.132034e+01    6.978729e+03
  4.134323e+01    6.918427e+03
  4.136612e+01    6.875436e+03
  4.138900e+01    6.841513e+03
  4.141189e+01    6.818193e+03
  4.143477e+01    6.797496e+03
  4.145766e+01    6.779550e+03
  4.148054e+01    6.765932e+03
  4.150343e+01    6.757933e+03
  4.152631e+01    6.747464e+03
  4.154920e+01    6.747238e+03
  4.157208e+01    6.736540e+03
  4.159497e+01    6.725566e+03
  4.161785e+01    6.727312e+03
  4.164074e+01    6.727829e+03
  4.166362e+01    6.717879e+03
  4.168651e+01    6.711258e+03
  4.170940e+01    6.709543e+03
  4.173228e+01    6.698284e+03
  4.175517e+01    6.681729e+03
  4.177805e+01    6.681369e+03
  4.180094e+01    6.683960e+03
  4.182382e+01    6.681896e+03
  4.184671e+01    6.681137e+03
  4.186959e+01    6.681369e+03
  4.189248e+01    6.681124e+03
  4.191536e+01    6.676245e+03
  4.193825e+01    6.675903e+03
  4.196113e+01    6.682812e+03
  4.198402e+01    6.691926e+03
  4.200691e+01    6.703171e+03
  4.202979e+01    6.706999e+03
  4.205268e+01    6.717185e+03
  4.207556e+01    6.735646e+03
  4.209845e+01    6.771750e+03
  4.212133e+01    6.835133e+03
  4.214422e+01    6.967618e+03
  4.216710e+01    7.213426e+03
  4.218999e+01    7.559854e+03
  4.221287e+01    7.893096e+03
  4.223576e+01    8.041134e+03
  4.225864e+01    7.955954e+03
  4.228153e+01    7.678829e+03
  4.230442e+01    7.338507e+03
  4.232730e+01    7.045420e+03
  4.235019e+01    6.862425e+03
  4.237307e+01    6.766104e+03
  4.239596e+01    6.701538e+03
  4.241884e+01    6.675681e+03
  4.244173e+01    6.661860e+03
  4.246461e+01    6.637914e+03
  4.248750e+01    6.619157e+03
  4.251038e+01    6.614550e+03
  4.253327e+01    6.612260e+03
  4.255615e+01    6.593667e+03
  4.257904e+01    6.578887e+03
  4.260192e+01    6.581546e+03
  4.262481e+01    6.586185e+03
  4.264770e+01    6.580644e+03
  4.267058e+01    6.582236e+03
  4.269347e+01    6.585521e+03
  4.271635e+01    6.586858e+03
  4.273924e+01    6.576585e+03
  4.276212e+01    6.576589e+03
  4.278501e+01    6.576555e+03
  4.280789e+01    6.575424e+03
  4.283078e+01    6.576942e+03
  4.285366e+01    6.579174e+03
  4.287655e+01    6.576160e+03
  4.289943e+01    6.587119e+03
  4.292232e+01    6.589288e+03
  4.294521e+01    6.604392e+03
  4.296809e+01    6.614108e+03
  4.299098e+01    6.619160e+03
  4.301386e+01    6.636862e+03
  4.303675e+01    6.660990e+03
  4.305963e+01    6.681819e+03
  4.308252e+01    6.703924e+03
  4.310540e+01    6.740237e+03
  4.312829e+01    6.774963e+03
  4.315117e+01    6.843561e+03
  4.317406e+01    6.946413e+03
  4.319694e+01    7.131074e+03
  4.321983e+01    7.490870e+03
  4.324272e+01    8.159322e+03
  4.326560e+01    9.268990e+03
  4.328849e+01    1.067471e+04
  4.331137e+01    1.183078e+04
  4.333426e+01    1.213576e+04
  4.335714e+01    1.156240e+04
  4.338003e+01    1.040464e+04
  4.340291e+01    9.131131e+03
  4.342580e+01    8.156929e+03
  4.344868e+01    7.569906e+03
  4.347157e+01    7.265044e+03
  4.349445e+01    7.128253e+03
  4.351734e+01    7.081428e+03
  4.354022e+01    7.068645e+03
  4.356311e+01    7.111019e+03
  4.358600e+01    7.185259e+03
  4.360888e+01    7.321527e+03
  4.363177e+01    7.553784e+03
  4.365465e+01    7.927090e+03
  4.367754e+01    8.572547e+03
  4.370042e+01    9.763934e+03
  4.372331e+01    1.191247e+04
  4.374619e+01    1.517734e+04
  4.376908e+01    1.907258e+04
  4.379196e+01    2.238426e+04
  4.381485e+01    2.398427e+04
  4.383773e+01    2.309249e+04
  4.386062e+01    2.026778e+04
  4.388351e+01    1.671911e+04
  4.390639e+01    1.355255e+04
  4.392928e+01    1.123587e+04
  4.395216e+01    9.693530e+03
  4.397505e+01    8.739383e+03
  4.399793e+01    8.128146e+03
  4.402082e+01    7.750000e+03
  4.404370e+01    7.526565e+03
  4.406659e+01    7.378849e+03
  4.408947e+01    7.304750e+03
  4.411236e+01    7.278616e+03
  4.413524e+01    7.291698e+03
  4.415813e+01    7.340485e+03
  4.418102e+01    7.439792e+03
  4.420390e+01    7.623372e+03
  4.422679e+01    7.910680e+03
  4.424967e+01    8.405902e+03
  4.427256e+01    9.347600e+03
  4.429544e+01    1.111945e+04
  4.431833e+01    1.435329e+04
  4.434121e+01    1.944957e+04
  4.436410e+01    2.530763e+04
  4.438698e+01    2.914432e+04
  4.440987e+01    2.916182e+04
  4.443275e+01    2.581171e+04
  4.445564e+01    2.054910e+04
  4.447853e+01    1.538082e+04
  4.450141e+01    1.168945e+04
  4.452430e+01    9.559142e+03
  4.454718e+01    8.414762e+03
  4.457007e+01    7.783341e+03
  4.459295e+01    7.427525e+03
  4.461584e+01    7.186660e+03
  4.463872e+01    7.017317e+03
  4.466161e+01    6.903458e+03
  4.468449e+01    6.812246e+03
  4.470738e+01    6.740196e+03
  4.473026e+01    6.691055e+03
  4.475315e+01    6.658449e+03
  4.477603e+01    6.620634e+03
  4.479892e+01    6.589572e+03
  4.482181e+01    6.567737e+03
  4.484469e+01    6.546405e+03
  4.486758e+01    6.527240e+03
  4.489046e+01    6.510508e+03
  4.491335e+01    6.496469e+03
  4.493623e+01    6.501964e+03
  4.495912e+01    6.492273e+03
  4.498200e+01    6.489444e+03
  4.500489e+01    6.477727e+03
  4.502777e+01    6.471069e+03
  4.505066e+01    6.461719e+03
  4.507354e+01    6.465719e+03
  4.509643e+01    6.479677e+03
  4.511932e+01    6.485270e+03
  4.514220e+01    6.487237e+03
  4.516509e+01    6.500528e+03
  4.518797e+01    6.521781e+03
  4.521086e+01    6.546831e+03
  4.523374e+01    6.579350e+03
  4.525663e+01    6.642348e+03
  4.527951e+01    6.743966e+03
  4.530240e+01    6.911255e+03
  4.532528e+01    7.207063e+03
  4.534817e+01    7.787676e+03
  4.537105e+01    8.823165e+03
  4.539394e+01    1.034615e+04
  4.541683e+01    1.192513e+04
  4.543971e+01    1.280524e+04
  4.546260e+01    1.260934e+04
  4.548548e+01    1.152049e+04
  4.550837e+01    1.001248e+04
  4.553125e+01    8.610320e+03
  4.555414e+01    7.659687e+03
  4.557702e+01    7.118844e+03
  4.559991e+01    6.828866e+03
  4.562279e+01    6.659437e+03
  4.564568e+01    6.560280e+03
  4.566856e+01    6.494160e+03
  4.569145e+01    6.453801e+03
  4.571433e+01    6.426062e+03
  4.573722e+01    6.399843e+03
  4.576011e+01    6.380329e+03
  4.578299e+01    6.367570e+03
  4.580588e+01    6.354231e+03
  4.582876e+01    6.333981e+03
  4.585165e+01    6.325119e+03
  4.587453e+01    6.315423e+03
  4.589742e+01    6.312376e+03
  4.592030e+01    6.296024e+03
  4.594319e+01    6.297092e+03
  4.596607e+01    6.293527e+03
  4.598896e+01    6.279631e+03
  4.601184e+01    6.273310e+03
  4.603473e+01    6.265265e+03
  4.605762e+01    6.276358e+03
  4.608050e+01    6.258853e+03
  4.610339e+01    6.253855e+03
  4.612627e+01    6.268284e+03
  4.614916e+01    6.263149e+03
  4.617204e+01    6.262182e+03
  4.619493e+01    6.266481e+03
  4.621781e+01    6.268009e+03
  4.624070e+01    6.277695e+03
  4.626358e+01    6.303842e+03
  4.628647e+01    6.315718e+03
  4.630935e+01    6.350572e+03
  4.633224e+01    6.419681e+03
  4.635513e+01    6.514643e+03
  4.637801e+01    6.702852e+03
  4.640090e+01    7.043373e+03
  4.642378e+01    7.526838e+03
  4.644667e+01    8.022253e+03
  4.646955e+01    8.264482e+03
  4.649244e+01    8.197220e+03
  4.651532e+01    7.851377e+03
  4.653821e+01    7.389319e+03
  4.656109e+01    6.969487e+03
  4.658398e+01    6.704865e+03
  4.660686e+01    6.556902e+03
  4.662975e+01    6.463985e+03
  4.665263e+01    6.410424e+03
  4.667552e+01    6.386145e+03
  4.669841e+01    6.365321e+03
  4.672129e+01    6.344853e+03
  4.674418e+01    6.337994e+03
  4.676706e+01    6.331360e+03
  4.678995e+01    6.335267e+03
  4.681283e+01    6.334027e+03
  4.683572e+01    6.344815e+03
  4.685860e+01    6.338862e+03
  4.688149e+01    6.334003e+03
  4.690437e+01    6.337732e+03
  4.692726e+01    6.356793e+03
  4.695014e+01    6.354858e+03
  4.697303e+01    6.355156e+03
  4.699592e+01    6.377447e+03
  4.701880e+01    6.389852e+03
  4.704169e+01    6.412626e+03
  4.706457e+01    6.425404e+03
  4.708746e+01    6.441451e+03
  4.711034e+01    6.454295e+03
  4.713323e+01    6.480944e+03
  4.715611e+01    6.463633e+03
  4.717900e+01    6.472035e+03
  4.720188e+01    6.483835e+03
  4.722477e+01    6.512861e+03
  4.724765e+01    6.557847e+03
  4.727054e+01    6.570782e+03
  4.729343e+01    6.608014e+03
  4.731631e+01    6.661802e+03
  4.733920e+01    6.713428e+03
  4.736208e+01    6.795489e+03
  4.738497e+01    6.965363e+03
  4.740785e+01    7.211622e+03
  4.743074e+01    7.575056e+03
  4.745362e+01    7.937999e+03
  4.747651e+01    8.175424e+03
  4.749939e+01    8.211266e+03
  4.752228e+01    8.019109e+03
  4.754516e+01    7.746880e+03
  4.756805e+01    7.461353e+03
  4.759094e+01    7.388766e+03
  4.761382e+01    7.356725e+03
  4.763671e+01    7.305160e+03
  4.765959e+01    7.261347e+03
  4.768248e+01    7.259781e+03
  4.770536e+01    7.232597e+03
  4.772825e+01    7.113188e+03
  4.775113e+01    7.158792e+03
  4.777402e+01    7.015306e+03
  4.779690e+01    6.999649e+03
  4.781979e+01    6.740104e+03
  4.784267e+01    6.495439e+03
  4.786556e+01    5.577638e+03
  4.788844e+01    2.718635e+03