File: Output/ROCK_XRD/WAM39B_integrated/rampe2/wam39b_rampe_2_xrd_000010_integrated.dat
# == pyFAI calibration ==
# Distance Sample to Detector: 0.261615 m
# PONI: 2.023e-01, 2.348e-01 m
# Rotations: -0.026380 0.002005 0.000000 rad
#
# == Fit2d calibration ==
# Distance Sample-beamCenter: 261.707 mm
# Center: x=6119.331, y=5134.776 pix
# Tilt: 1.516 deg  TiltPlanRot: 4.347 deg
#
# Detector Rayonix SX165	 PixelSize= 3.950e-05, 3.950e-05 m
#    Detector has a mask: True
#    Detector has a dark current: False
#    detector has a flat field: False
#
# Wavelength: 1.12713e-10 m
# Mask applied: from detector
# Dark current applied: False
# Flat field applied: False
# Polarization factor: None
# Normalization factor: 1.0
# --> ROCK\\WAM39B_integrated\wam39b_rampe_2_xrd_000010_integrated.dat
#       2th_deg             I
  2.502596e+01    4.241699e+03
  2.504885e+01    1.114961e+04
  2.507173e+01    1.501671e+04
  2.509462e+01    1.596050e+04
  2.511750e+01    1.745978e+04
  2.514039e+01    1.808079e+04
  2.516327e+01    1.798847e+04
  2.518616e+01    1.781248e+04
  2.520905e+01    1.768099e+04
  2.523193e+01    1.747706e+04
  2.525482e+01    1.754471e+04
  2.527770e+01    1.787002e+04
  2.530059e+01    1.780245e+04
  2.532347e+01    1.763650e+04
  2.534636e+01    1.747236e+04
  2.536924e+01    1.735410e+04
  2.539213e+01    1.732057e+04
  2.541501e+01    1.731733e+04
  2.543790e+01    1.731508e+04
  2.546078e+01    1.734134e+04
  2.548367e+01    1.729570e+04
  2.550656e+01    1.715020e+04
  2.552944e+01    1.704836e+04
  2.555233e+01    1.726030e+04
  2.557521e+01    1.739090e+04
  2.559810e+01    1.736870e+04
  2.562098e+01    1.740576e+04
  2.564387e+01    1.748030e+04
  2.566675e+01    1.754774e+04
  2.568964e+01    1.752495e+04
  2.571252e+01    1.750509e+04
  2.573541e+01    1.754123e+04
  2.575829e+01    1.751917e+04
  2.578118e+01    1.743903e+04
  2.580407e+01    1.741404e+04
  2.582695e+01    1.740442e+04
  2.584984e+01    1.737149e+04
  2.587272e+01    1.733844e+04
  2.589561e+01    1.735667e+04
  2.591849e+01    1.729547e+04
  2.594138e+01    1.724946e+04
  2.596426e+01    1.725852e+04
  2.598715e+01    1.718534e+04
  2.601003e+01    1.719768e+04
  2.603292e+01    1.717502e+04
  2.605580e+01    1.716208e+04
  2.607869e+01    1.720836e+04
  2.610157e+01    1.728477e+04
  2.612446e+01    1.743096e+04
  2.614735e+01    1.766717e+04
  2.617023e+01    1.800253e+04
  2.619312e+01    1.854594e+04
  2.621600e+01    1.942322e+04
  2.623889e+01    2.071352e+04
  2.626177e+01    2.280521e+04
  2.628466e+01    2.592706e+04
  2.630754e+01    3.011733e+04
  2.633043e+01    3.494562e+04
  2.635331e+01    3.999213e+04
  2.637620e+01    4.492519e+04
  2.639908e+01    4.861223e+04
  2.642197e+01    4.908557e+04
  2.644486e+01    4.511123e+04
  2.646774e+01    3.855939e+04
  2.649063e+01    3.167512e+04
  2.651351e+01    2.632105e+04
  2.653640e+01    2.265001e+04
  2.655928e+01    2.028546e+04
  2.658217e+01    1.878108e+04
  2.660505e+01    1.781540e+04
  2.662794e+01    1.717058e+04
  2.665082e+01    1.670390e+04
  2.667371e+01    1.635831e+04
  2.669659e+01    1.610265e+04
  2.671948e+01    1.590174e+04
  2.674237e+01    1.574529e+04
  2.676525e+01    1.561171e+04
  2.678814e+01    1.549555e+04
  2.681102e+01    1.540388e+04
  2.683391e+01    1.530789e+04
  2.685679e+01    1.523467e+04
  2.687968e+01    1.519124e+04
  2.690256e+01    1.509490e+04
  2.692545e+01    1.503671e+04
  2.694833e+01    1.497234e+04
  2.697122e+01    1.490042e+04
  2.699410e+01    1.484723e+04
  2.701699e+01    1.482873e+04
  2.703988e+01    1.475400e+04
  2.706276e+01    1.470640e+04
  2.708565e+01    1.467900e+04
  2.710853e+01    1.464090e+04
  2.713142e+01    1.460003e+04
  2.715430e+01    1.455926e+04
  2.717719e+01    1.451728e+04
  2.720007e+01    1.445382e+04
  2.722296e+01    1.441017e+04
  2.724584e+01    1.435323e+04
  2.726873e+01    1.433130e+04
  2.729161e+01    1.429717e+04
  2.731450e+01    1.426294e+04
  2.733738e+01    1.421032e+04
  2.736027e+01    1.416015e+04
  2.738316e+01    1.412540e+04
  2.740604e+01    1.409007e+04
  2.742893e+01    1.407583e+04
  2.745181e+01    1.407658e+04
  2.747470e+01    1.405008e+04
  2.749758e+01    1.402625e+04
  2.752047e+01    1.399471e+04
  2.754335e+01    1.397432e+04
  2.756624e+01    1.397186e+04
  2.758912e+01    1.396279e+04
  2.761201e+01    1.394111e+04
  2.763489e+01    1.392262e+04
  2.765778e+01    1.392069e+04
  2.768067e+01    1.392635e+04
  2.770355e+01    1.394028e+04
  2.772644e+01    1.393794e+04
  2.774932e+01    1.394337e+04
  2.777221e+01    1.399086e+04
  2.779509e+01    1.406659e+04
  2.781798e+01    1.419038e+04
  2.784086e+01    1.435811e+04
  2.786375e+01    1.465012e+04
  2.788663e+01    1.512830e+04
  2.790952e+01    1.588061e+04
  2.793240e+01    1.693185e+04
  2.795529e+01    1.798458e+04
  2.797818e+01    1.855153e+04
  2.800106e+01    1.829019e+04
  2.802395e+01    1.734061e+04
  2.804683e+01    1.618101e+04
  2.806972e+01    1.521008e+04
  2.809260e+01    1.455370e+04
  2.811549e+01    1.414023e+04
  2.813837e+01    1.387370e+04
  2.816126e+01    1.368651e+04
  2.818414e+01    1.353678e+04
  2.820703e+01    1.341529e+04
  2.822991e+01    1.330629e+04
  2.825280e+01    1.320319e+04
  2.827568e+01    1.312494e+04
  2.829857e+01    1.306483e+04
  2.832146e+01    1.299901e+04
  2.834434e+01    1.292708e+04
  2.836723e+01    1.286227e+04
  2.839011e+01    1.280336e+04
  2.841300e+01    1.273784e+04
  2.843588e+01    1.268691e+04
  2.845877e+01    1.263390e+04
  2.848165e+01    1.258051e+04
  2.850454e+01    1.253548e+04
  2.852742e+01    1.250064e+04
  2.855031e+01    1.246817e+04
  2.857319e+01    1.240652e+04
  2.859608e+01    1.235402e+04
  2.861897e+01    1.232291e+04
  2.864185e+01    1.228480e+04
  2.866474e+01    1.224854e+04
  2.868762e+01    1.219755e+04
  2.871051e+01    1.216705e+04
  2.873339e+01    1.214303e+04
  2.875628e+01    1.211221e+04
  2.877916e+01    1.208336e+04
  2.880205e+01    1.205552e+04
  2.882493e+01    1.203333e+04
  2.884782e+01    1.201832e+04
  2.887070e+01    1.199204e+04
  2.889359e+01    1.196669e+04
  2.891648e+01    1.195063e+04
  2.893936e+01    1.192918e+04
  2.896225e+01    1.188817e+04
  2.898513e+01    1.183609e+04
  2.900802e+01    1.178707e+04
  2.903090e+01    1.173555e+04
  2.905379e+01    1.168479e+04
  2.907667e+01    1.163618e+04
  2.909956e+01    1.157085e+04
  2.912244e+01    1.151549e+04
  2.914533e+01    1.146223e+04
  2.916821e+01    1.142128e+04
  2.919110e+01    1.137353e+04
  2.921398e+01    1.131808e+04
  2.923687e+01    1.127540e+04
  2.925976e+01    1.122253e+04
  2.928264e+01    1.117380e+04
  2.930553e+01    1.114561e+04
  2.932841e+01    1.111416e+04
  2.935130e+01    1.108417e+04
  2.937418e+01    1.107858e+04
  2.939707e+01    1.111648e+04
  2.941995e+01    1.118957e+04
  2.944284e+01    1.134844e+04
  2.946572e+01    1.165392e+04
  2.948861e+01    1.204033e+04
  2.951149e+01    1.237770e+04
  2.953438e+01    1.247860e+04
  2.955727e+01    1.225062e+04
  2.958015e+01    1.181242e+04
  2.960304e+01    1.136132e+04
  2.962592e+01    1.100727e+04
  2.964881e+01    1.077368e+04
  2.967169e+01    1.062268e+04
  2.969458e+01    1.053047e+04
  2.971746e+01    1.046378e+04
  2.974035e+01    1.040511e+04
  2.976323e+01    1.035255e+04
  2.978612e+01    1.031518e+04
  2.980900e+01    1.028945e+04
  2.983189e+01    1.025748e+04
  2.985478e+01    1.022249e+04
  2.987766e+01    1.018426e+04
  2.990055e+01    1.016755e+04
  2.992343e+01    1.016424e+04
  2.994632e+01    1.015276e+04
  2.996920e+01    1.013962e+04
  2.999209e+01    1.013616e+04
  3.001497e+01    1.013980e+04
  3.003786e+01    1.014452e+04
  3.006074e+01    1.013992e+04
  3.008363e+01    1.013519e+04
  3.010651e+01    1.014224e+04
  3.012940e+01    1.015505e+04
  3.015228e+01    1.014807e+04
  3.017517e+01    1.015188e+04
  3.019806e+01    1.017783e+04
  3.022094e+01    1.019489e+04
  3.024383e+01    1.022583e+04
  3.026671e+01    1.028343e+04
  3.028960e+01    1.035404e+04
  3.031248e+01    1.044210e+04
  3.033537e+01    1.057846e+04
  3.035825e+01    1.076976e+04
  3.038114e+01    1.103210e+04
  3.040402e+01    1.141622e+04
  3.042691e+01    1.201029e+04
  3.044979e+01    1.295174e+04
  3.047268e+01    1.450197e+04
  3.049557e+01    1.706885e+04
  3.051845e+01    2.118994e+04
  3.054134e+01    2.745776e+04
  3.056422e+01    3.606154e+04
  3.058711e+01    4.432080e+04
  3.060999e+01    4.855830e+04
  3.063288e+01    4.674370e+04
  3.065576e+01    4.038400e+04
  3.067865e+01    3.243246e+04
  3.070153e+01    2.527480e+04
  3.072442e+01    2.008461e+04
  3.074730e+01    1.673687e+04
  3.077019e+01    1.462317e+04
  3.079308e+01    1.332934e+04
  3.081596e+01    1.256326e+04
  3.083885e+01    1.220428e+04
  3.086173e+01    1.222909e+04
  3.088462e+01    1.273579e+04
  3.090750e+01    1.394827e+04
  3.093039e+01    1.624953e+04
  3.095327e+01    1.979166e+04
  3.097616e+01    2.384113e+04
  3.099904e+01    2.658416e+04
  3.102193e+01    2.646101e+04
  3.104481e+01    2.354819e+04
  3.106770e+01    1.939565e+04
  3.109059e+01    1.567007e+04
  3.111347e+01    1.313798e+04
  3.113636e+01    1.163415e+04
  3.115924e+01    1.077664e+04
  3.118213e+01    1.028035e+04
  3.120501e+01    9.971523e+03
  3.122790e+01    9.758358e+03
  3.125078e+01    9.603155e+03
  3.127367e+01    9.487376e+03
  3.129655e+01    9.401252e+03
  3.131944e+01    9.338573e+03
  3.134232e+01    9.280430e+03
  3.136521e+01    9.238478e+03
  3.138809e+01    9.198465e+03
  3.141098e+01    9.162284e+03
  3.143387e+01    9.130919e+03
  3.145675e+01    9.104086e+03
  3.147964e+01    9.067617e+03
  3.150252e+01    9.039110e+03
  3.152541e+01    9.013503e+03
  3.154829e+01    8.979081e+03
  3.157118e+01    8.952034e+03
  3.159406e+01    8.936650e+03
  3.161695e+01    8.914067e+03
  3.163983e+01    8.889009e+03
  3.166272e+01    8.874997e+03
  3.168560e+01    8.853551e+03
  3.170849e+01    8.832814e+03
  3.173138e+01    8.815236e+03
  3.175426e+01    8.790013e+03
  3.177715e+01    8.769973e+03
  3.180003e+01    8.761722e+03
  3.182292e+01    8.746680e+03
  3.184580e+01    8.735801e+03
  3.186869e+01    8.723409e+03
  3.189157e+01    8.708310e+03
  3.191446e+01    8.698940e+03
  3.193734e+01    8.688135e+03
  3.196023e+01    8.671089e+03
  3.198311e+01    8.646608e+03
  3.200600e+01    8.629698e+03
  3.202889e+01    8.623329e+03
  3.205177e+01    8.614534e+03
  3.207466e+01    8.598306e+03
  3.209754e+01    8.580845e+03
  3.212043e+01    8.573005e+03
  3.214331e+01    8.565949e+03
  3.216620e+01    8.557190e+03
  3.218908e+01    8.547211e+03
  3.221197e+01    8.545846e+03
  3.223485e+01    8.548838e+03
  3.225774e+01    8.564448e+03
  3.228062e+01    8.598570e+03
  3.230351e+01    8.667783e+03
  3.232639e+01    8.801473e+03
  3.234928e+01    9.035095e+03
  3.237217e+01    9.391347e+03
  3.239505e+01    9.772180e+03
  3.241794e+01    1.001046e+04
  3.244082e+01    9.970917e+03
  3.246371e+01    9.683678e+03
  3.248659e+01    9.296109e+03
  3.250948e+01    8.957085e+03
  3.253236e+01    8.734397e+03
  3.255525e+01    8.598817e+03
  3.257813e+01    8.530743e+03
  3.260102e+01    8.492737e+03
  3.262390e+01    8.470350e+03
  3.264679e+01    8.449598e+03
  3.266968e+01    8.435468e+03
  3.269256e+01    8.418306e+03
  3.271545e+01    8.392673e+03
  3.273833e+01    8.373015e+03
  3.276122e+01    8.350240e+03
  3.278410e+01    8.319549e+03
  3.280699e+01    8.288745e+03
  3.282987e+01    8.262041e+03
  3.285276e+01    8.233515e+03
  3.287564e+01    8.203851e+03
  3.289853e+01    8.186124e+03
  3.292141e+01    8.145123e+03
  3.294430e+01    8.120781e+03
  3.296719e+01    8.103901e+03
  3.299007e+01    8.080691e+03
  3.301296e+01    8.067491e+03
  3.303584e+01    8.057515e+03
  3.305873e+01    8.042053e+03
  3.308161e+01    8.025674e+03
  3.310450e+01    8.018449e+03
  3.312738e+01    8.009516e+03
  3.315027e+01    7.997521e+03
  3.317315e+01    7.983000e+03
  3.319604e+01    7.976373e+03
  3.321892e+01    7.969769e+03
  3.324181e+01    7.956630e+03
  3.326469e+01    7.947349e+03
  3.328758e+01    7.946059e+03
  3.331047e+01    7.944328e+03
  3.333335e+01    7.928397e+03
  3.335624e+01    7.920901e+03
  3.337912e+01    7.922008e+03
  3.340201e+01    7.921237e+03
  3.342489e+01    7.925590e+03
  3.344778e+01    7.928373e+03
  3.347066e+01    7.938075e+03
  3.349355e+01    7.959313e+03
  3.351643e+01    7.982766e+03
  3.353932e+01    8.018352e+03
  3.356220e+01    8.076520e+03
  3.358509e+01    8.165607e+03
  3.360798e+01    8.303783e+03
  3.363086e+01    8.538637e+03
  3.365375e+01    8.967476e+03
  3.367663e+01    9.747207e+03
  3.369952e+01    1.115815e+04
  3.372240e+01    1.349154e+04
  3.374529e+01    1.657003e+04
  3.376817e+01    1.933966e+04
  3.379106e+01    2.035681e+04
  3.381394e+01    1.910029e+04
  3.383683e+01    1.631072e+04
  3.385971e+01    1.330301e+04
  3.388260e+01    1.102943e+04
  3.390549e+01    9.626183e+03
  3.392837e+01    8.829183e+03
  3.395126e+01    8.380141e+03
  3.397414e+01    8.134099e+03
  3.399703e+01    7.975321e+03
  3.401991e+01    7.871554e+03
  3.404280e+01    7.792861e+03
  3.406568e+01    7.725151e+03
  3.408857e+01    7.675740e+03
  3.411145e+01    7.643400e+03
  3.413434e+01    7.616277e+03
  3.415722e+01    7.595006e+03
  3.418011e+01    7.569068e+03
  3.420300e+01    7.548424e+03
  3.422588e+01    7.532851e+03
  3.424877e+01    7.530239e+03
  3.427165e+01    7.524059e+03
  3.429454e+01    7.504419e+03
  3.431742e+01    7.491160e+03
  3.434031e+01    7.482504e+03
  3.436319e+01    7.474827e+03
  3.438608e+01    7.469708e+03
  3.440896e+01    7.466711e+03
  3.443185e+01    7.456037e+03
  3.445473e+01    7.449332e+03
  3.447762e+01    7.434933e+03
  3.450050e+01    7.427303e+03
  3.452339e+01    7.414315e+03
  3.454628e+01    7.404220e+03
  3.456916e+01    7.395842e+03
  3.459205e+01    7.392958e+03
  3.461493e+01    7.383630e+03
  3.463782e+01    7.369667e+03
  3.466070e+01    7.359958e+03
  3.468359e+01    7.356748e+03
  3.470647e+01    7.352414e+03
  3.472936e+01    7.339774e+03
  3.475224e+01    7.329004e+03
  3.477513e+01    7.313842e+03
  3.479801e+01    7.294906e+03
  3.482090e+01    7.282432e+03
  3.484379e+01    7.264364e+03
  3.486667e+01    7.249191e+03
  3.488956e+01    7.240028e+03
  3.491244e+01    7.220188e+03
  3.493533e+01    7.198422e+03
  3.495821e+01    7.177577e+03
  3.498110e+01    7.164812e+03
  3.500398e+01    7.151638e+03
  3.502687e+01    7.141820e+03
  3.504975e+01    7.129850e+03
  3.507264e+01    7.114147e+03
  3.509552e+01    7.099028e+03
  3.511841e+01    7.091078e+03
  3.514130e+01    7.077129e+03
  3.516418e+01    7.070045e+03
  3.518707e+01    7.058235e+03
  3.520995e+01    7.058533e+03
  3.523284e+01    7.054411e+03
  3.525572e+01    7.045629e+03
  3.527861e+01    7.031951e+03
  3.530149e+01    7.016260e+03
  3.532438e+01    6.997302e+03
  3.534726e+01    6.984277e+03
  3.537015e+01    6.972551e+03
  3.539303e+01    6.952233e+03
  3.541592e+01    6.940847e+03
  3.543880e+01    6.930131e+03
  3.546169e+01    6.920458e+03
  3.548458e+01    6.916443e+03
  3.550746e+01    6.911408e+03
  3.553035e+01    6.900534e+03
  3.555323e+01    6.887537e+03
  3.557612e+01    6.875599e+03
  3.559900e+01    6.868688e+03
  3.562189e+01    6.863685e+03
  3.564477e+01    6.861646e+03
  3.566766e+01    6.861515e+03
  3.569054e+01    6.852650e+03
  3.571343e+01    6.853483e+03
  3.573631e+01    6.853178e+03
  3.575920e+01    6.846489e+03
  3.578209e+01    6.837947e+03
  3.580497e+01    6.832555e+03
  3.582786e+01    6.831906e+03
  3.585074e+01    6.834149e+03
  3.587363e+01    6.835620e+03
  3.589651e+01    6.835014e+03
  3.591940e+01    6.837345e+03
  3.594228e+01    6.839188e+03
  3.596517e+01    6.842599e+03
  3.598805e+01    6.852083e+03
  3.601094e+01    6.853750e+03
  3.603382e+01    6.857017e+03
  3.605671e+01    6.870542e+03
  3.607960e+01    6.888518e+03
  3.610248e+01    6.899225e+03
  3.612537e+01    6.910613e+03
  3.614825e+01    6.939766e+03
  3.617114e+01    6.975548e+03
  3.619402e+01    7.033592e+03
  3.621691e+01    7.125885e+03
  3.623979e+01    7.283899e+03
  3.626268e+01    7.572437e+03
  3.628556e+01    8.100492e+03
  3.630845e+01    9.000365e+03
  3.633133e+01    1.022232e+04
  3.635422e+01    1.136992e+04
  3.637710e+01    1.185226e+04
  3.639999e+01    1.145419e+04
  3.642288e+01    1.041623e+04
  3.644576e+01    9.216491e+03
  3.646865e+01    8.277453e+03
  3.649153e+01    7.693810e+03
  3.651442e+01    7.362711e+03
  3.653730e+01    7.198869e+03
  3.656019e+01    7.110718e+03
  3.658307e+01    7.055439e+03
  3.660596e+01    7.019702e+03
  3.662884e+01    6.993797e+03
  3.665173e+01    6.975390e+03
  3.667461e+01    6.970565e+03
  3.669750e+01    6.969114e+03
  3.672039e+01    6.961159e+03
  3.674327e+01    6.964024e+03
  3.676616e+01    6.967447e+03
  3.678904e+01    6.967406e+03
  3.681193e+01    6.972068e+03
  3.683481e+01    6.973048e+03
  3.685770e+01    6.973983e+03
  3.688058e+01    6.990177e+03
  3.690347e+01    6.995502e+03
  3.692635e+01    7.005842e+03
  3.694924e+01    7.011429e+03
  3.697212e+01    7.026451e+03
  3.699501e+01    7.044553e+03
  3.701790e+01    7.060981e+03
  3.704078e+01    7.081646e+03
  3.706367e+01    7.094380e+03
  3.708655e+01    7.114863e+03
  3.710944e+01    7.149453e+03
  3.713232e+01    7.175619e+03
  3.715521e+01    7.210595e+03
  3.717809e+01    7.252367e+03
  3.720098e+01    7.295791e+03
  3.722386e+01    7.357350e+03
  3.724675e+01    7.418812e+03
  3.726963e+01    7.492782e+03
  3.729252e+01    7.588562e+03
  3.731541e+01    7.705806e+03
  3.733829e+01    7.862821e+03
  3.736118e+01    8.073268e+03
  3.738406e+01    8.356971e+03
  3.740695e+01    8.774514e+03
  3.742983e+01    9.414271e+03
  3.745272e+01    1.046573e+04
  3.747560e+01    1.234421e+04
  3.749849e+01    1.586338e+04
  3.752137e+01    2.241539e+04
  3.754426e+01    3.346939e+04
  3.756714e+01    4.839525e+04
  3.759003e+01    6.193551e+04
  3.761291e+01    6.715026e+04
  3.763580e+01    6.186496e+04
  3.765869e+01    4.925051e+04
  3.768157e+01    3.491628e+04
  3.770446e+01    2.362217e+04
  3.772734e+01    1.664282e+04
  3.775023e+01    1.283395e+04
  3.777311e+01    1.079116e+04
  3.779600e+01    9.656395e+03
  3.781888e+01    8.966221e+03
  3.784177e+01    8.519559e+03
  3.786465e+01    8.200496e+03
  3.788754e+01    7.973286e+03
  3.791042e+01    7.812132e+03
  3.793331e+01    7.688944e+03
  3.795620e+01    7.586468e+03
  3.797908e+01    7.492087e+03
  3.800197e+01    7.421061e+03
  3.802485e+01    7.367304e+03
  3.804774e+01    7.323339e+03
  3.807062e+01    7.288053e+03
  3.809351e+01    7.263688e+03
  3.811639e+01    7.238062e+03
  3.813928e+01    7.205993e+03
  3.816216e+01    7.179515e+03
  3.818505e+01    7.161242e+03
  3.820793e+01    7.143066e+03
  3.823082e+01    7.121142e+03
  3.825371e+01    7.104617e+03
  3.827659e+01    7.099421e+03
  3.829948e+01    7.091308e+03
  3.832236e+01    7.082233e+03
  3.834525e+01    7.069468e+03
  3.836813e+01    7.069188e+03
  3.839102e+01    7.065942e+03
  3.841390e+01    7.059257e+03
  3.843679e+01    7.055083e+03
  3.845967e+01    7.057141e+03
  3.848256e+01    7.056092e+03
  3.850544e+01    7.058504e+03
  3.852833e+01    7.068312e+03
  3.855121e+01    7.074580e+03
  3.857410e+01    7.085382e+03
  3.859699e+01    7.095739e+03
  3.861987e+01    7.110784e+03
  3.864276e+01    7.147488e+03
  3.866564e+01    7.195926e+03
  3.868853e+01    7.288367e+03
  3.871141e+01    7.473838e+03
  3.873430e+01    7.812587e+03
  3.875718e+01    8.324104e+03
  3.878007e+01    8.902968e+03
  3.880295e+01    9.260092e+03
  3.882584e+01    9.237149e+03
  3.884872e+01    8.865275e+03
  3.887161e+01    8.322942e+03
  3.889450e+01    7.814488e+03
  3.891738e+01    7.473081e+03
  3.894027e+01    7.271807e+03
  3.896315e+01    7.156338e+03
  3.898604e+01    7.096572e+03
  3.900892e+01    7.064093e+03
  3.903181e+01    7.036038e+03
  3.905469e+01    7.015890e+03
  3.907758e+01    6.997533e+03
  3.910046e+01    6.985276e+03
  3.912335e+01    6.983642e+03
  3.914623e+01    6.975427e+03
  3.916912e+01    6.959977e+03
  3.919201e+01    6.965524e+03
  3.921489e+01    6.949970e+03
  3.923778e+01    6.941713e+03
  3.926066e+01    6.935776e+03
  3.928355e+01    6.930837e+03
  3.930643e+01    6.923334e+03
  3.932932e+01    6.913423e+03
  3.935220e+01    6.914496e+03
  3.937509e+01    6.912305e+03
  3.939797e+01    6.908728e+03
  3.942086e+01    6.908632e+03
  3.944374e+01    6.890926e+03
  3.946663e+01    6.885973e+03
  3.948951e+01    6.875112e+03
  3.951240e+01    6.863228e+03
  3.953529e+01    6.852061e+03
  3.955817e+01    6.843816e+03
  3.958106e+01    6.836342e+03
  3.960394e+01    6.833939e+03
  3.962683e+01    6.824854e+03
  3.964971e+01    6.817412e+03
  3.967260e+01    6.815203e+03
  3.969548e+01    6.804533e+03
  3.971837e+01    6.793862e+03
  3.974125e+01    6.786375e+03
  3.976414e+01    6.784648e+03
  3.978702e+01    6.786711e+03
  3.980991e+01    6.779535e+03
  3.983280e+01    6.789072e+03
  3.985568e+01    6.817117e+03
  3.987857e+01    6.871976e+03
  3.990145e+01    6.972020e+03
  3.992434e+01    7.085449e+03
  3.994722e+01    7.221097e+03
  3.997011e+01    7.312578e+03
  3.999299e+01    7.309168e+03
  4.001588e+01    7.215430e+03
  4.003876e+01    7.074632e+03
  4.006165e+01    6.948692e+03
  4.008453e+01    6.852910e+03
  4.010742e+01    6.793473e+03
  4.013031e+01    6.758485e+03
  4.015319e+01    6.739486e+03
  4.017608e+01    6.731851e+03
  4.019896e+01    6.721595e+03
  4.022185e+01    6.710505e+03
  4.024473e+01    6.705765e+03
  4.026762e+01    6.698210e+03
  4.029050e+01    6.692441e+03
  4.031339e+01    6.691107e+03
  4.033627e+01    6.684006e+03
  4.035916e+01    6.676801e+03
  4.038204e+01    6.673530e+03
  4.040493e+01    6.668045e+03
  4.042782e+01    6.660473e+03
  4.045070e+01    6.662223e+03
  4.047359e+01    6.664321e+03
  4.049647e+01    6.659802e+03
  4.051936e+01    6.650248e+03
  4.054224e+01    6.649326e+03
  4.056513e+01    6.645281e+03
  4.058801e+01    6.641776e+03
  4.061090e+01    6.646665e+03
  4.063378e+01    6.642947e+03
  4.065667e+01    6.651069e+03
  4.067955e+01    6.651586e+03
  4.070244e+01    6.655784e+03
  4.072532e+01    6.655815e+03
  4.074821e+01    6.666288e+03
  4.077110e+01    6.675728e+03
  4.079398e+01    6.687398e+03
  4.081687e+01    6.692031e+03
  4.083975e+01    6.699787e+03
  4.086264e+01    6.711834e+03
  4.088552e+01    6.740192e+03
  4.090841e+01    6.773950e+03
  4.093129e+01    6.831912e+03
  4.095418e+01    6.926283e+03
  4.097706e+01    7.073048e+03
  4.099995e+01    7.357048e+03
  4.102283e+01    7.896540e+03
  4.104572e+01    8.882921e+03
  4.106861e+01    1.035131e+04
  4.109149e+01    1.195603e+04
  4.111438e+01    1.295544e+04
  4.113726e+01    1.285457e+04
  4.116015e+01    1.181284e+04
  4.118303e+01    1.030576e+04
  4.120592e+01    8.893873e+03
  4.122880e+01    7.934496e+03
  4.125169e+01    7.396566e+03
  4.127457e+01    7.111618e+03
  4.129746e+01    6.957310e+03
  4.132034e+01    6.855299e+03
  4.134323e+01    6.802736e+03
  4.136612e+01    6.760914e+03
  4.138900e+01    6.731037e+03
  4.141189e+01    6.701621e+03
  4.143477e+01    6.686289e+03
  4.145766e+01    6.674305e+03
  4.148054e+01    6.658216e+03
  4.150343e+01    6.648960e+03
  4.152631e+01    6.640761e+03
  4.154920e+01    6.636387e+03
  4.157208e+01    6.617600e+03
  4.159497e+01    6.612440e+03
  4.161785e+01    6.617723e+03
  4.164074e+01    6.614453e+03
  4.166362e+01    6.611770e+03
  4.168651e+01    6.609543e+03
  4.170940e+01    6.609251e+03
  4.173228e+01    6.598217e+03
  4.175517e+01    6.581875e+03
  4.177805e+01    6.574838e+03
  4.180094e+01    6.573944e+03
  4.182382e+01    6.571496e+03
  4.184671e+01    6.563713e+03
  4.186959e+01    6.570676e+03
  4.189248e+01    6.573368e+03
  4.191536e+01    6.575035e+03
  4.193825e+01    6.574485e+03
  4.196113e+01    6.579765e+03
  4.198402e+01    6.585442e+03
  4.200691e+01    6.594911e+03
  4.202979e+01    6.597761e+03
  4.205268e+01    6.608873e+03
  4.207556e+01    6.626544e+03
  4.209845e+01    6.656967e+03
  4.212133e+01    6.724893e+03
  4.214422e+01    6.869049e+03
  4.216710e+01    7.110085e+03
  4.218999e+01    7.440254e+03
  4.221287e+01    7.758817e+03
  4.223576e+01    7.899127e+03
  4.225864e+01    7.808557e+03
  4.228153e+01    7.534000e+03
  4.230442e+01    7.202246e+03
  4.232730e+01    6.926436e+03
  4.235019e+01    6.749742e+03
  4.237307e+01    6.645179e+03
  4.239596e+01    6.579023e+03
  4.241884e+01    6.555829e+03
  4.244173e+01    6.536822e+03
  4.246461e+01    6.516729e+03
  4.248750e+01    6.504730e+03
  4.251038e+01    6.502566e+03
  4.253327e+01    6.491444e+03
  4.255615e+01    6.479282e+03
  4.257904e+01    6.477926e+03
  4.260192e+01    6.471986e+03
  4.262481e+01    6.474025e+03
  4.264770e+01    6.470607e+03
  4.267058e+01    6.472038e+03
  4.269347e+01    6.472887e+03
  4.271635e+01    6.466384e+03
  4.273924e+01    6.459432e+03
  4.276212e+01    6.463681e+03
  4.278501e+01    6.465381e+03
  4.280789e+01    6.469031e+03
  4.283078e+01    6.469665e+03
  4.285366e+01    6.474794e+03
  4.287655e+01    6.475835e+03
  4.289943e+01    6.480288e+03
  4.292232e+01    6.492664e+03
  4.294521e+01    6.499814e+03
  4.296809e+01    6.501937e+03
  4.299098e+01    6.516712e+03
  4.301386e+01    6.529666e+03
  4.303675e+01    6.546633e+03
  4.305963e+01    6.566954e+03
  4.308252e+01    6.588058e+03
  4.310540e+01    6.626623e+03
  4.312829e+01    6.662533e+03
  4.315117e+01    6.728792e+03
  4.317406e+01    6.831949e+03
  4.319694e+01    7.019272e+03
  4.321983e+01    7.371658e+03
  4.324272e+01    8.038143e+03
  4.326560e+01    9.133987e+03
  4.328849e+01    1.050751e+04
  4.331137e+01    1.162714e+04
  4.333426e+01    1.190527e+04
  4.335714e+01    1.132675e+04
  4.338003e+01    1.018512e+04
  4.340291e+01    8.937736e+03
  4.342580e+01    7.987671e+03
  4.344868e+01    7.422014e+03
  4.347157e+01    7.135056e+03
  4.349445e+01    7.001316e+03
  4.351734e+01    6.958020e+03
  4.354022e+01    6.947679e+03
  4.356311e+01    6.990175e+03
  4.358600e+01    7.059694e+03
  4.360888e+01    7.185672e+03
  4.363177e+01    7.411322e+03
  4.365465e+01    7.764216e+03
  4.367754e+01    8.378837e+03
  4.370042e+01    9.501250e+03
  4.372331e+01    1.151516e+04
  4.374619e+01    1.457998e+04
  4.376908e+01    1.832492e+04
  4.379196e+01    2.161886e+04
  4.381485e+01    2.336280e+04
  4.383773e+01    2.272854e+04
  4.386062e+01    2.012171e+04
  4.388351e+01    1.669536e+04
  4.390639e+01    1.353848e+04
  4.392928e+01    1.118244e+04
  4.395216e+01    9.623450e+03
  4.397505e+01    8.647663e+03
  4.399793e+01    8.036302e+03
  4.402082e+01    7.653681e+03
  4.404370e+01    7.424765e+03
  4.406659e+01    7.273541e+03
  4.408947e+01    7.187275e+03
  4.411236e+01    7.165097e+03
  4.413524e+01    7.169854e+03
  4.415813e+01    7.213066e+03
  4.418102e+01    7.317170e+03
  4.420390e+01    7.495124e+03
  4.422679e+01    7.775024e+03
  4.424967e+01    8.280410e+03
  4.427256e+01    9.218942e+03
  4.429544e+01    1.098136e+04
  4.431833e+01    1.419468e+04
  4.434121e+01    1.923223e+04
  4.436410e+01    2.496366e+04
  4.438698e+01    2.863485e+04
  4.440987e+01    2.854612e+04
  4.443275e+01    2.520449e+04
  4.445564e+01    2.003490e+04
  4.447853e+01    1.498471e+04
  4.450141e+01    1.141286e+04
  4.452430e+01    9.358854e+03
  4.454718e+01    8.257353e+03
  4.457007e+01    7.642363e+03
  4.459295e+01    7.285631e+03
  4.461584e+01    7.056142e+03
  4.463872e+01    6.889177e+03
  4.466161e+01    6.776594e+03
  4.468449e+01    6.692198e+03
  4.470738e+01    6.623071e+03
  4.473026e+01    6.572047e+03
  4.475315e+01    6.538786e+03
  4.477603e+01    6.501149e+03
  4.479892e+01    6.474750e+03
  4.482181e+01    6.452463e+03
  4.484469e+01    6.429386e+03
  4.486758e+01    6.416214e+03
  4.489046e+01    6.398230e+03
  4.491335e+01    6.384668e+03
  4.493623e+01    6.384958e+03
  4.495912e+01    6.373194e+03
  4.498200e+01    6.376856e+03
  4.500489e+01    6.363696e+03
  4.502777e+01    6.358888e+03
  4.505066e+01    6.356911e+03
  4.507354e+01    6.362166e+03
  4.509643e+01    6.365894e+03
  4.511932e+01    6.372770e+03
  4.514220e+01    6.382644e+03
  4.516509e+01    6.388596e+03
  4.518797e+01    6.405644e+03
  4.521086e+01    6.428856e+03
  4.523374e+01    6.459889e+03
  4.525663e+01    6.518647e+03
  4.527951e+01    6.622621e+03
  4.530240e+01    6.787215e+03
  4.532528e+01    7.094930e+03
  4.534817e+01    7.677750e+03
  4.537105e+01    8.693334e+03
  4.539394e+01    1.018370e+04
  4.541683e+01    1.174597e+04
  4.543971e+01    1.257515e+04
  4.546260e+01    1.234911e+04
  4.548548e+01    1.127959e+04
  4.550837e+01    9.799817e+03
  4.553125e+01    8.435110e+03
  4.555414e+01    7.510651e+03
  4.557702e+01    6.988878e+03
  4.559991e+01    6.711491e+03
  4.562279e+01    6.541420e+03
  4.564568e+01    6.454174e+03
  4.566856e+01    6.397453e+03
  4.569145e+01    6.351246e+03
  4.571433e+01    6.315036e+03
  4.573722e+01    6.288136e+03
  4.576011e+01    6.267028e+03
  4.578299e+01    6.257295e+03
  4.580588e+01    6.240431e+03
  4.582876e+01    6.216858e+03
  4.585165e+01    6.225417e+03
  4.587453e+01    6.219613e+03
  4.589742e+01    6.212135e+03
  4.592030e+01    6.202097e+03
  4.594319e+01    6.194398e+03
  4.596607e+01    6.184128e+03
  4.598896e+01    6.174948e+03
  4.601184e+01    6.162640e+03
  4.603473e+01    6.154755e+03
  4.605762e+01    6.156833e+03
  4.608050e+01    6.148467e+03
  4.610339e+01    6.145373e+03
  4.612627e+01    6.151623e+03
  4.614916e+01    6.149432e+03
  4.617204e+01    6.161390e+03
  4.619493e+01    6.162074e+03
  4.621781e+01    6.166991e+03
  4.624070e+01    6.163743e+03
  4.626358e+01    6.186221e+03
  4.628647e+01    6.207190e+03
  4.630935e+01    6.242576e+03
  4.633224e+01    6.314361e+03
  4.635513e+01    6.408712e+03
  4.637801e+01    6.596135e+03
  4.640090e+01    6.938650e+03
  4.642378e+01    7.417830e+03
  4.644667e+01    7.892970e+03
  4.646955e+01    8.131438e+03
  4.649244e+01    8.066887e+03
  4.651532e+01    7.715078e+03
  4.653821e+01    7.241048e+03
  4.656109e+01    6.834493e+03
  4.658398e+01    6.580095e+03
  4.660686e+01    6.439747e+03
  4.662975e+01    6.361508e+03
  4.665263e+01    6.314631e+03
  4.667552e+01    6.285234e+03
  4.669841e+01    6.261589e+03
  4.672129e+01    6.245460e+03
  4.674418e+01    6.230414e+03
  4.676706e+01    6.229774e+03
  4.678995e+01    6.244286e+03
  4.681283e+01    6.246458e+03
  4.683572e+01    6.247054e+03
  4.685860e+01    6.243780e+03
  4.688149e+01    6.239991e+03
  4.690437e+01    6.250005e+03
  4.692726e+01    6.264406e+03
  4.695014e+01    6.255538e+03
  4.697303e+01    6.255677e+03
  4.699592e+01    6.268025e+03
  4.701880e+01    6.276778e+03
  4.704169e+01    6.309269e+03
  4.706457e+01    6.321494e+03
  4.708746e+01    6.315800e+03
  4.711034e+01    6.329512e+03
  4.713323e+01    6.361436e+03
  4.715611e+01    6.348004e+03
  4.717900e+01    6.366812e+03
  4.720188e+01    6.392413e+03
  4.722477e+01    6.413292e+03
  4.724765e+01    6.441168e+03
  4.727054e+01    6.462300e+03
  4.729343e+01    6.492737e+03
  4.731631e+01    6.522978e+03
  4.733920e+01    6.580711e+03
  4.736208e+01    6.684948e+03
  4.738497e+01    6.843624e+03
  4.740785e+01    7.102978e+03
  4.743074e+01    7.456364e+03
  4.745362e+01    7.794222e+03
  4.747651e+01    8.046042e+03
  4.749939e+01    8.069834e+03
  4.752228e+01    7.881351e+03
  4.754516e+01    7.617839e+03
  4.756805e+01    7.327717e+03
  4.759094e+01    7.252295e+03
  4.761382e+01    7.224430e+03
  4.763671e+01    7.184069e+03
  4.765959e+01    7.141607e+03
  4.768248e+01    7.133579e+03
  4.770536e+01    7.103321e+03
  4.772825e+01    6.986122e+03
  4.775113e+01    7.028274e+03
  4.777402e+01    6.899048e+03
  4.779690e+01    6.890192e+03
  4.781979e+01    6.642339e+03
  4.784267e+01    6.391681e+03
  4.786556e+01    5.491208e+03
  4.788844e+01    2.677194e+03