File: Output/ROCK_XRD/WAM39B_integrated/rampe2/wam39b_rampe_2_xrd_000003_integrated.dat
# == pyFAI calibration ==
# Distance Sample to Detector: 0.261615 m
# PONI: 2.023e-01, 2.348e-01 m
# Rotations: -0.026380 0.002005 0.000000 rad
#
# == Fit2d calibration ==
# Distance Sample-beamCenter: 261.707 mm
# Center: x=6119.331, y=5134.776 pix
# Tilt: 1.516 deg  TiltPlanRot: 4.347 deg
#
# Detector Rayonix SX165	 PixelSize= 3.950e-05, 3.950e-05 m
#    Detector has a mask: True
#    Detector has a dark current: False
#    detector has a flat field: False
#
# Wavelength: 1.12713e-10 m
# Mask applied: from detector
# Dark current applied: False
# Flat field applied: False
# Polarization factor: None
# Normalization factor: 1.0
# --> ROCK\\WAM39B_integrated\wam39b_rampe_2_xrd_000003_integrated.dat
#       2th_deg             I
  2.502596e+01    4.471017e+03
  2.504885e+01    1.174270e+04
  2.507173e+01    1.581017e+04
  2.509462e+01    1.678403e+04
  2.511750e+01    1.835061e+04
  2.514039e+01    1.900273e+04
  2.516327e+01    1.892868e+04
  2.518616e+01    1.875733e+04
  2.520905e+01    1.861674e+04
  2.523193e+01    1.838408e+04
  2.525482e+01    1.844573e+04
  2.527770e+01    1.879012e+04
  2.530059e+01    1.871916e+04
  2.532347e+01    1.851948e+04
  2.534636e+01    1.833010e+04
  2.536924e+01    1.821595e+04
  2.539213e+01    1.817853e+04
  2.541501e+01    1.815162e+04
  2.543790e+01    1.812291e+04
  2.546078e+01    1.811535e+04
  2.548367e+01    1.802786e+04
  2.550656e+01    1.783245e+04
  2.552944e+01    1.768778e+04
  2.555233e+01    1.785111e+04
  2.557521e+01    1.791637e+04
  2.559810e+01    1.783255e+04
  2.562098e+01    1.782101e+04
  2.564387e+01    1.783533e+04
  2.566675e+01    1.784201e+04
  2.568964e+01    1.776191e+04
  2.571252e+01    1.769450e+04
  2.573541e+01    1.768610e+04
  2.575829e+01    1.763330e+04
  2.578118e+01    1.752226e+04
  2.580407e+01    1.747559e+04
  2.582695e+01    1.745863e+04
  2.584984e+01    1.742949e+04
  2.587272e+01    1.740612e+04
  2.589561e+01    1.746116e+04
  2.591849e+01    1.745246e+04
  2.594138e+01    1.748054e+04
  2.596426e+01    1.756303e+04
  2.598715e+01    1.755929e+04
  2.601003e+01    1.765491e+04
  2.603292e+01    1.771927e+04
  2.605580e+01    1.779343e+04
  2.607869e+01    1.794946e+04
  2.610157e+01    1.816221e+04
  2.612446e+01    1.846183e+04
  2.614735e+01    1.888875e+04
  2.617023e+01    1.950293e+04
  2.619312e+01    2.048311e+04
  2.621600e+01    2.209528e+04
  2.623889e+01    2.457890e+04
  2.626177e+01    2.853177e+04
  2.628466e+01    3.443636e+04
  2.630754e+01    4.243725e+04
  2.633043e+01    5.142225e+04
  2.635331e+01    5.811381e+04
  2.637620e+01    6.005337e+04
  2.639908e+01    5.502546e+04
  2.642197e+01    4.503494e+04
  2.644486e+01    3.505150e+04
  2.646774e+01    2.786535e+04
  2.649063e+01    2.359956e+04
  2.651351e+01    2.117017e+04
  2.653640e+01    1.965413e+04
  2.655928e+01    1.868315e+04
  2.658217e+01    1.801569e+04
  2.660505e+01    1.756437e+04
  2.662794e+01    1.724353e+04
  2.665082e+01    1.696818e+04
  2.667371e+01    1.676912e+04
  2.669659e+01    1.660299e+04
  2.671948e+01    1.646136e+04
  2.674237e+01    1.635129e+04
  2.676525e+01    1.625989e+04
  2.678814e+01    1.616455e+04
  2.681102e+01    1.609066e+04
  2.683391e+01    1.601050e+04
  2.685679e+01    1.594405e+04
  2.687968e+01    1.589385e+04
  2.690256e+01    1.579755e+04
  2.692545e+01    1.573910e+04
  2.694833e+01    1.568455e+04
  2.697122e+01    1.562448e+04
  2.699410e+01    1.557720e+04
  2.701699e+01    1.556124e+04
  2.703988e+01    1.548213e+04
  2.706276e+01    1.543782e+04
  2.708565e+01    1.541535e+04
  2.710853e+01    1.537181e+04
  2.713142e+01    1.532487e+04
  2.715430e+01    1.527936e+04
  2.717719e+01    1.523574e+04
  2.720007e+01    1.517217e+04
  2.722296e+01    1.512794e+04
  2.724584e+01    1.507649e+04
  2.726873e+01    1.505952e+04
  2.729161e+01    1.501331e+04
  2.731450e+01    1.496422e+04
  2.733738e+01    1.491298e+04
  2.736027e+01    1.487082e+04
  2.738316e+01    1.483198e+04
  2.740604e+01    1.479390e+04
  2.742893e+01    1.476385e+04
  2.745181e+01    1.474829e+04
  2.747470e+01    1.470718e+04
  2.749758e+01    1.467061e+04
  2.752047e+01    1.463031e+04
  2.754335e+01    1.460546e+04
  2.756624e+01    1.459971e+04
  2.758912e+01    1.457950e+04
  2.761201e+01    1.454137e+04
  2.763489e+01    1.450746e+04
  2.765778e+01    1.449621e+04
  2.768067e+01    1.448415e+04
  2.770355e+01    1.449262e+04
  2.772644e+01    1.447905e+04
  2.774932e+01    1.447459e+04
  2.777221e+01    1.451638e+04
  2.779509e+01    1.459244e+04
  2.781798e+01    1.474126e+04
  2.784086e+01    1.497739e+04
  2.786375e+01    1.541685e+04
  2.788663e+01    1.611960e+04
  2.790952e+01    1.712999e+04
  2.793240e+01    1.826689e+04
  2.795529e+01    1.900295e+04
  2.797818e+01    1.889784e+04
  2.800106e+01    1.799046e+04
  2.802395e+01    1.676398e+04
  2.804683e+01    1.570269e+04
  2.806972e+01    1.496955e+04
  2.809260e+01    1.451431e+04
  2.811549e+01    1.422530e+04
  2.813837e+01    1.403901e+04
  2.816126e+01    1.389663e+04
  2.818414e+01    1.378085e+04
  2.820703e+01    1.368578e+04
  2.822991e+01    1.359732e+04
  2.825280e+01    1.353618e+04
  2.827568e+01    1.348612e+04
  2.829857e+01    1.343444e+04
  2.832146e+01    1.338590e+04
  2.834434e+01    1.332933e+04
  2.836723e+01    1.327583e+04
  2.839011e+01    1.323105e+04
  2.841300e+01    1.318909e+04
  2.843588e+01    1.315389e+04
  2.845877e+01    1.309782e+04
  2.848165e+01    1.304581e+04
  2.850454e+01    1.301613e+04
  2.852742e+01    1.298985e+04
  2.855031e+01    1.295994e+04
  2.857319e+01    1.290590e+04
  2.859608e+01    1.286206e+04
  2.861897e+01    1.282558e+04
  2.864185e+01    1.277739e+04
  2.866474e+01    1.273587e+04
  2.868762e+01    1.267539e+04
  2.871051e+01    1.262263e+04
  2.873339e+01    1.258243e+04
  2.875628e+01    1.253361e+04
  2.877916e+01    1.249697e+04
  2.880205e+01    1.245340e+04
  2.882493e+01    1.241097e+04
  2.884782e+01    1.237267e+04
  2.887070e+01    1.233405e+04
  2.889359e+01    1.229013e+04
  2.891648e+01    1.223875e+04
  2.893936e+01    1.219213e+04
  2.896225e+01    1.214367e+04
  2.898513e+01    1.209858e+04
  2.900802e+01    1.206285e+04
  2.903090e+01    1.201469e+04
  2.905379e+01    1.196325e+04
  2.907667e+01    1.191569e+04
  2.909956e+01    1.186263e+04
  2.912244e+01    1.181925e+04
  2.914533e+01    1.178740e+04
  2.916821e+01    1.176372e+04
  2.919110e+01    1.172070e+04
  2.921398e+01    1.168279e+04
  2.923687e+01    1.165329e+04
  2.925976e+01    1.161944e+04
  2.928264e+01    1.159295e+04
  2.930553e+01    1.157779e+04
  2.932841e+01    1.156325e+04
  2.935130e+01    1.156614e+04
  2.937418e+01    1.159033e+04
  2.939707e+01    1.168079e+04
  2.941995e+01    1.184060e+04
  2.944284e+01    1.211651e+04
  2.946572e+01    1.252755e+04
  2.948861e+01    1.290259e+04
  2.951149e+01    1.305203e+04
  2.953438e+01    1.287706e+04
  2.955727e+01    1.244279e+04
  2.958015e+01    1.195454e+04
  2.960304e+01    1.158367e+04
  2.962592e+01    1.132822e+04
  2.964881e+01    1.115891e+04
  2.967169e+01    1.105145e+04
  2.969458e+01    1.098146e+04
  2.971746e+01    1.092166e+04
  2.974035e+01    1.087039e+04
  2.976323e+01    1.082621e+04
  2.978612e+01    1.079477e+04
  2.980900e+01    1.077422e+04
  2.983189e+01    1.074671e+04
  2.985478e+01    1.071351e+04
  2.987766e+01    1.067611e+04
  2.990055e+01    1.065956e+04
  2.992343e+01    1.065610e+04
  2.994632e+01    1.064041e+04
  2.996920e+01    1.062595e+04
  2.999209e+01    1.062212e+04
  3.001497e+01    1.062624e+04
  3.003786e+01    1.062700e+04
  3.006074e+01    1.062992e+04
  3.008363e+01    1.063098e+04
  3.010651e+01    1.063669e+04
  3.012940e+01    1.066407e+04
  3.015228e+01    1.067293e+04
  3.017517e+01    1.068868e+04
  3.019806e+01    1.073286e+04
  3.022094e+01    1.076751e+04
  3.024383e+01    1.081751e+04
  3.026671e+01    1.090508e+04
  3.028960e+01    1.102799e+04
  3.031248e+01    1.119006e+04
  3.033537e+01    1.144953e+04
  3.035825e+01    1.184208e+04
  3.038114e+01    1.243785e+04
  3.040402e+01    1.345072e+04
  3.042691e+01    1.525324e+04
  3.044979e+01    1.860433e+04
  3.047268e+01    2.476772e+04
  3.049557e+01    3.532889e+04
  3.051845e+01    4.853507e+04
  3.054134e+01    5.903554e+04
  3.056422e+01    6.172534e+04
  3.058711e+01    5.590405e+04
  3.060999e+01    4.370982e+04
  3.063288e+01    3.066737e+04
  3.065576e+01    2.201421e+04
  3.067865e+01    1.732251e+04
  3.070153e+01    1.475037e+04
  3.072442e+01    1.329512e+04
  3.074730e+01    1.246611e+04
  3.077019e+01    1.199595e+04
  3.079308e+01    1.178811e+04
  3.081596e+01    1.178321e+04
  3.083885e+01    1.203631e+04
  3.086173e+01    1.267649e+04
  3.088462e+01    1.398807e+04
  3.090750e+01    1.633426e+04
  3.093039e+01    1.995449e+04
  3.095327e+01    2.424989e+04
  3.097616e+01    2.744910e+04
  3.099904e+01    2.771031e+04
  3.102193e+01    2.490708e+04
  3.104481e+01    2.060277e+04
  3.106770e+01    1.663435e+04
  3.109059e+01    1.386886e+04
  3.111347e+01    1.223370e+04
  3.113636e+01    1.130878e+04
  3.115924e+01    1.077176e+04
  3.118213e+01    1.044506e+04
  3.120501e+01    1.022077e+04
  3.122790e+01    1.006165e+04
  3.125078e+01    9.950560e+03
  3.127367e+01    9.861319e+03
  3.129655e+01    9.789553e+03
  3.131944e+01    9.728997e+03
  3.134232e+01    9.676452e+03
  3.136521e+01    9.630211e+03
  3.138809e+01    9.589717e+03
  3.141098e+01    9.554446e+03
  3.143387e+01    9.528757e+03
  3.145675e+01    9.505712e+03
  3.147964e+01    9.475695e+03
  3.150252e+01    9.442469e+03
  3.152541e+01    9.416930e+03
  3.154829e+01    9.384229e+03
  3.157118e+01    9.363836e+03
  3.159406e+01    9.340516e+03
  3.161695e+01    9.315726e+03
  3.163983e+01    9.292929e+03
  3.166272e+01    9.281867e+03
  3.168560e+01    9.261498e+03
  3.170849e+01    9.241645e+03
  3.173138e+01    9.223336e+03
  3.175426e+01    9.200963e+03
  3.177715e+01    9.185594e+03
  3.180003e+01    9.169766e+03
  3.182292e+01    9.147337e+03
  3.184580e+01    9.130378e+03
  3.186869e+01    9.119153e+03
  3.189157e+01    9.101724e+03
  3.191446e+01    9.086104e+03
  3.193734e+01    9.073841e+03
  3.196023e+01    9.059652e+03
  3.198311e+01    9.043560e+03
  3.200600e+01    9.024880e+03
  3.202889e+01    9.008801e+03
  3.205177e+01    8.997490e+03
  3.207466e+01    8.988712e+03
  3.209754e+01    8.967876e+03
  3.212043e+01    8.957715e+03
  3.214331e+01    8.948863e+03
  3.216620e+01    8.945159e+03
  3.218908e+01    8.940229e+03
  3.221197e+01    8.935052e+03
  3.223485e+01    8.943192e+03
  3.225774e+01    8.981278e+03
  3.228062e+01    9.044536e+03
  3.230351e+01    9.168107e+03
  3.232639e+01    9.394459e+03
  3.234928e+01    9.736968e+03
  3.237217e+01    1.013250e+04
  3.239505e+01    1.038384e+04
  3.241794e+01    1.035870e+04
  3.244082e+01    1.006492e+04
  3.246371e+01    9.657646e+03
  3.248659e+01    9.293294e+03
  3.250948e+01    9.043193e+03
  3.253236e+01    8.890816e+03
  3.255525e+01    8.799027e+03
  3.257813e+01    8.744055e+03
  3.260102e+01    8.707147e+03
  3.262390e+01    8.685916e+03
  3.264679e+01    8.663135e+03
  3.266968e+01    8.635379e+03
  3.269256e+01    8.615048e+03
  3.271545e+01    8.602165e+03
  3.273833e+01    8.584206e+03
  3.276122e+01    8.562111e+03
  3.278410e+01    8.548852e+03
  3.280699e+01    8.536540e+03
  3.282987e+01    8.527356e+03
  3.285276e+01    8.516074e+03
  3.287564e+01    8.497208e+03
  3.289853e+01    8.485423e+03
  3.292141e+01    8.463749e+03
  3.294430e+01    8.450488e+03
  3.296719e+01    8.439080e+03
  3.299007e+01    8.421132e+03
  3.301296e+01    8.408176e+03
  3.303584e+01    8.400700e+03
  3.305873e+01    8.391982e+03
  3.308161e+01    8.383294e+03
  3.310450e+01    8.372231e+03
  3.312738e+01    8.364085e+03
  3.315027e+01    8.355546e+03
  3.317315e+01    8.340272e+03
  3.319604e+01    8.333329e+03
  3.321892e+01    8.324180e+03
  3.324181e+01    8.317905e+03
  3.326469e+01    8.307689e+03
  3.328758e+01    8.308502e+03
  3.331047e+01    8.318151e+03
  3.333335e+01    8.307289e+03
  3.335624e+01    8.294173e+03
  3.337912e+01    8.290162e+03
  3.340201e+01    8.291877e+03
  3.342489e+01    8.305613e+03
  3.344778e+01    8.316736e+03
  3.347066e+01    8.327536e+03
  3.349355e+01    8.353315e+03
  3.351643e+01    8.393114e+03
  3.353932e+01    8.451373e+03
  3.356220e+01    8.540203e+03
  3.358509e+01    8.682610e+03
  3.360798e+01    8.922541e+03
  3.363086e+01    9.346782e+03
  3.365375e+01    1.014046e+04
  3.367663e+01    1.158094e+04
  3.369952e+01    1.396829e+04
  3.372240e+01    1.714979e+04
  3.374529e+01    2.004569e+04
  3.376817e+01    2.114078e+04
  3.379106e+01    1.986962e+04
  3.381394e+01    1.699616e+04
  3.383683e+01    1.386157e+04
  3.385971e+01    1.147808e+04
  3.388260e+01    1.003032e+04
  3.390549e+01    9.234665e+03
  3.392837e+01    8.787564e+03
  3.395126e+01    8.519985e+03
  3.397414e+01    8.345680e+03
  3.399703e+01    8.221198e+03
  3.401991e+01    8.142861e+03
  3.404280e+01    8.078813e+03
  3.406568e+01    8.024845e+03
  3.408857e+01    7.992725e+03
  3.411145e+01    7.964524e+03
  3.413434e+01    7.926154e+03
  3.415722e+01    7.896644e+03
  3.418011e+01    7.875239e+03
  3.420300e+01    7.854229e+03
  3.422588e+01    7.831343e+03
  3.424877e+01    7.816593e+03
  3.427165e+01    7.805154e+03
  3.429454e+01    7.793150e+03
  3.431742e+01    7.774334e+03
  3.434031e+01    7.764436e+03
  3.436319e+01    7.755434e+03
  3.438608e+01    7.739363e+03
  3.440896e+01    7.728282e+03
  3.443185e+01    7.716000e+03
  3.445473e+01    7.695801e+03
  3.447762e+01    7.672719e+03
  3.450050e+01    7.664832e+03
  3.452339e+01    7.653638e+03
  3.454628e+01    7.642024e+03
  3.456916e+01    7.632526e+03
  3.459205e+01    7.624599e+03
  3.461493e+01    7.608141e+03
  3.463782e+01    7.595894e+03
  3.466070e+01    7.584144e+03
  3.468359e+01    7.577964e+03
  3.470647e+01    7.572498e+03
  3.472936e+01    7.558928e+03
  3.475224e+01    7.549563e+03
  3.477513e+01    7.536529e+03
  3.479801e+01    7.521181e+03
  3.482090e+01    7.503921e+03
  3.484379e+01    7.491147e+03
  3.486667e+01    7.485796e+03
  3.488956e+01    7.475721e+03
  3.491244e+01    7.466207e+03
  3.493533e+01    7.459460e+03
  3.495821e+01    7.449239e+03
  3.498110e+01    7.446417e+03
  3.500398e+01    7.431896e+03
  3.502687e+01    7.420694e+03
  3.504975e+01    7.415653e+03
  3.507264e+01    7.409653e+03
  3.509552e+01    7.394425e+03
  3.511841e+01    7.388460e+03
  3.514130e+01    7.381921e+03
  3.516418e+01    7.382850e+03
  3.518707e+01    7.375227e+03
  3.520995e+01    7.369069e+03
  3.523284e+01    7.362931e+03
  3.525572e+01    7.357281e+03
  3.527861e+01    7.346305e+03
  3.530149e+01    7.336079e+03
  3.532438e+01    7.320021e+03
  3.534726e+01    7.303619e+03
  3.537015e+01    7.291924e+03
  3.539303e+01    7.280797e+03
  3.541592e+01    7.269298e+03
  3.543880e+01    7.259271e+03
  3.546169e+01    7.249695e+03
  3.548458e+01    7.241816e+03
  3.550746e+01    7.234417e+03
  3.553035e+01    7.225695e+03
  3.555323e+01    7.219491e+03
  3.557612e+01    7.205866e+03
  3.559900e+01    7.193599e+03
  3.562189e+01    7.188112e+03
  3.564477e+01    7.186561e+03
  3.566766e+01    7.179375e+03
  3.569054e+01    7.170074e+03
  3.571343e+01    7.169994e+03
  3.573631e+01    7.172055e+03
  3.575920e+01    7.162153e+03
  3.578209e+01    7.159875e+03
  3.580497e+01    7.164049e+03
  3.582786e+01    7.163314e+03
  3.585074e+01    7.161240e+03
  3.587363e+01    7.154312e+03
  3.589651e+01    7.158703e+03
  3.591940e+01    7.167886e+03
  3.594228e+01    7.164609e+03
  3.596517e+01    7.159909e+03
  3.598805e+01    7.170678e+03
  3.601094e+01    7.183246e+03
  3.603382e+01    7.185088e+03
  3.605671e+01    7.192967e+03
  3.607960e+01    7.212622e+03
  3.610248e+01    7.234406e+03
  3.612537e+01    7.262821e+03
  3.614825e+01    7.304646e+03
  3.617114e+01    7.361028e+03
  3.619402e+01    7.458911e+03
  3.621691e+01    7.630686e+03
  3.623979e+01    7.938463e+03
  3.626268e+01    8.500807e+03
  3.628556e+01    9.443878e+03
  3.630845e+01    1.071311e+04
  3.633133e+01    1.186427e+04
  3.635422e+01    1.231090e+04
  3.637710e+01    1.183379e+04
  3.639999e+01    1.073614e+04
  3.642288e+01    9.519105e+03
  3.644576e+01    8.563925e+03
  3.646865e+01    7.993385e+03
  3.649153e+01    7.690688e+03
  3.651442e+01    7.523847e+03
  3.653730e+01    7.438658e+03
  3.656019e+01    7.382136e+03
  3.658307e+01    7.346146e+03
  3.660596e+01    7.325799e+03
  3.662884e+01    7.307276e+03
  3.665173e+01    7.293326e+03
  3.667461e+01    7.286003e+03
  3.669750e+01    7.285151e+03
  3.672039e+01    7.288958e+03
  3.674327e+01    7.291541e+03
  3.676616e+01    7.289961e+03
  3.678904e+01    7.298637e+03
  3.681193e+01    7.303208e+03
  3.683481e+01    7.309606e+03
  3.685770e+01    7.318321e+03
  3.688058e+01    7.330474e+03
  3.690347e+01    7.341208e+03
  3.692635e+01    7.352657e+03
  3.694924e+01    7.362516e+03
  3.697212e+01    7.378843e+03
  3.699501e+01    7.400605e+03
  3.701790e+01    7.412557e+03
  3.704078e+01    7.436195e+03
  3.706367e+01    7.462514e+03
  3.708655e+01    7.486725e+03
  3.710944e+01    7.522914e+03
  3.713232e+01    7.552868e+03
  3.715521e+01    7.597921e+03
  3.717809e+01    7.650743e+03
  3.720098e+01    7.704769e+03
  3.722386e+01    7.774947e+03
  3.724675e+01    7.858536e+03
  3.726963e+01    7.954098e+03
  3.729252e+01    8.074659e+03
  3.731541e+01    8.241187e+03
  3.733829e+01    8.463081e+03
  3.736118e+01    8.778054e+03
  3.738406e+01    9.214237e+03
  3.740695e+01    9.902886e+03
  3.742983e+01    1.105190e+04
  3.745272e+01    1.311062e+04
  3.747560e+01    1.695712e+04
  3.749849e+01    2.409092e+04
  3.752137e+01    3.596277e+04
  3.754426e+01    5.154145e+04
  3.756714e+01    6.504427e+04
  3.759003e+01    6.939723e+04
  3.761291e+01    6.280434e+04
  3.763580e+01    4.918102e+04
  3.765869e+01    3.454086e+04
  3.768157e+01    2.337914e+04
  3.770446e+01    1.663241e+04
  3.772734e+01    1.300129e+04
  3.775023e+01    1.105661e+04
  3.777311e+01    9.952690e+03
  3.779600e+01    9.286657e+03
  3.781888e+01    8.842274e+03
  3.784177e+01    8.538594e+03
  3.786465e+01    8.320577e+03
  3.788754e+01    8.152185e+03
  3.791042e+01    8.032149e+03
  3.793331e+01    7.940543e+03
  3.795620e+01    7.858081e+03
  3.797908e+01    7.772628e+03
  3.800197e+01    7.708365e+03
  3.802485e+01    7.662021e+03
  3.804774e+01    7.619116e+03
  3.807062e+01    7.590283e+03
  3.809351e+01    7.565536e+03
  3.811639e+01    7.548771e+03
  3.813928e+01    7.531095e+03
  3.816216e+01    7.506198e+03
  3.818505e+01    7.484963e+03
  3.820793e+01    7.464310e+03
  3.823082e+01    7.442384e+03
  3.825371e+01    7.431872e+03
  3.827659e+01    7.420930e+03
  3.829948e+01    7.415376e+03
  3.832236e+01    7.410816e+03
  3.834525e+01    7.399419e+03
  3.836813e+01    7.393112e+03
  3.839102e+01    7.398527e+03
  3.841390e+01    7.392458e+03
  3.843679e+01    7.385893e+03
  3.845967e+01    7.390888e+03
  3.848256e+01    7.387774e+03
  3.850544e+01    7.389127e+03
  3.852833e+01    7.395080e+03
  3.855121e+01    7.407434e+03
  3.857410e+01    7.419554e+03
  3.859699e+01    7.434676e+03
  3.861987e+01    7.468047e+03
  3.864276e+01    7.526075e+03
  3.866564e+01    7.632734e+03
  3.868853e+01    7.843890e+03
  3.871141e+01    8.209492e+03
  3.873430e+01    8.751042e+03
  3.875718e+01    9.328929e+03
  3.878007e+01    9.664919e+03
  3.880295e+01    9.577287e+03
  3.882584e+01    9.159276e+03
  3.884872e+01    8.595639e+03
  3.887161e+01    8.098617e+03
  3.889450e+01    7.770479e+03
  3.891738e+01    7.584559e+03
  3.894027e+01    7.481796e+03
  3.896315e+01    7.419618e+03
  3.898604e+01    7.389865e+03
  3.900892e+01    7.369867e+03
  3.903181e+01    7.357362e+03
  3.905469e+01    7.339354e+03
  3.907758e+01    7.319875e+03
  3.910046e+01    7.310013e+03
  3.912335e+01    7.303722e+03
  3.914623e+01    7.294204e+03
  3.916912e+01    7.282045e+03
  3.919201e+01    7.287110e+03
  3.921489e+01    7.277222e+03
  3.923778e+01    7.270282e+03
  3.926066e+01    7.264485e+03
  3.928355e+01    7.258230e+03
  3.930643e+01    7.257122e+03
  3.932932e+01    7.250820e+03
  3.935220e+01    7.252170e+03
  3.937509e+01    7.256756e+03
  3.939797e+01    7.254175e+03
  3.942086e+01    7.247774e+03
  3.944374e+01    7.227346e+03
  3.946663e+01    7.212900e+03
  3.948951e+01    7.198159e+03
  3.951240e+01    7.185240e+03
  3.953529e+01    7.182499e+03
  3.955817e+01    7.184604e+03
  3.958106e+01    7.177678e+03
  3.960394e+01    7.163701e+03
  3.962683e+01    7.152155e+03
  3.964971e+01    7.138243e+03
  3.967260e+01    7.138915e+03
  3.969548e+01    7.138141e+03
  3.971837e+01    7.138417e+03
  3.974125e+01    7.127193e+03
  3.976414e+01    7.124149e+03
  3.978702e+01    7.127584e+03
  3.980991e+01    7.130927e+03
  3.983280e+01    7.159244e+03
  3.985568e+01    7.213654e+03
  3.987857e+01    7.311293e+03
  3.990145e+01    7.462541e+03
  3.992434e+01    7.591211e+03
  3.994722e+01    7.668680e+03
  3.997011e+01    7.655457e+03
  3.999299e+01    7.547439e+03
  4.001588e+01    7.396000e+03
  4.003876e+01    7.262803e+03
  4.006165e+01    7.176588e+03
  4.008453e+01    7.129759e+03
  4.010742e+01    7.094458e+03
  4.013031e+01    7.072241e+03
  4.015319e+01    7.064096e+03
  4.017608e+01    7.057111e+03
  4.019896e+01    7.049623e+03
  4.022185e+01    7.039143e+03
  4.024473e+01    7.027853e+03
  4.026762e+01    7.030011e+03
  4.029050e+01    7.024612e+03
  4.031339e+01    7.022775e+03
  4.033627e+01    7.009856e+03
  4.035916e+01    6.997066e+03
  4.038204e+01    6.990211e+03
  4.040493e+01    6.998272e+03
  4.042782e+01    6.997458e+03
  4.045070e+01    6.994398e+03
  4.047359e+01    6.990010e+03
  4.049647e+01    6.978979e+03
  4.051936e+01    6.978061e+03
  4.054224e+01    6.975577e+03
  4.056513e+01    6.968491e+03
  4.058801e+01    6.964404e+03
  4.061090e+01    6.962042e+03
  4.063378e+01    6.961207e+03
  4.065667e+01    6.969462e+03
  4.067955e+01    6.969530e+03
  4.070244e+01    6.973076e+03
  4.072532e+01    6.980855e+03
  4.074821e+01    6.982572e+03
  4.077110e+01    6.998175e+03
  4.079398e+01    7.011161e+03
  4.081687e+01    7.019021e+03
  4.083975e+01    7.037656e+03
  4.086264e+01    7.059097e+03
  4.088552e+01    7.090556e+03
  4.090841e+01    7.151092e+03
  4.093129e+01    7.248393e+03
  4.095418e+01    7.430616e+03
  4.097706e+01    7.764291e+03
  4.099995e+01    8.391041e+03
  4.102283e+01    9.495511e+03
  4.104572e+01    1.109183e+04
  4.106861e+01    1.267387e+04
  4.109149e+01    1.346960e+04
  4.111438e+01    1.313180e+04
  4.113726e+01    1.188398e+04
  4.116015e+01    1.029391e+04
  4.118303e+01    8.930002e+03
  4.120592e+01    8.049370e+03
  4.122880e+01    7.582578e+03
  4.125169e+01    7.334466e+03
  4.127457e+01    7.191973e+03
  4.129746e+01    7.107445e+03
  4.132034e+01    7.039318e+03
  4.134323e+01    6.995669e+03
  4.136612e+01    6.970393e+03
  4.138900e+01    6.943709e+03
  4.141189e+01    6.923580e+03
  4.143477e+01    6.913833e+03
  4.145766e+01    6.905849e+03
  4.148054e+01    6.892012e+03
  4.150343e+01    6.890674e+03
  4.152631e+01    6.883907e+03
  4.154920e+01    6.883304e+03
  4.157208e+01    6.873987e+03
  4.159497e+01    6.873949e+03
  4.161785e+01    6.875593e+03
  4.164074e+01    6.878509e+03
  4.166362e+01    6.876504e+03
  4.168651e+01    6.874800e+03
  4.170940e+01    6.868458e+03
  4.173228e+01    6.871132e+03
  4.175517e+01    6.864518e+03
  4.177805e+01    6.853936e+03
  4.180094e+01    6.843506e+03
  4.182382e+01    6.838767e+03
  4.184671e+01    6.837526e+03
  4.186959e+01    6.841231e+03
  4.189248e+01    6.838807e+03
  4.191536e+01    6.836422e+03
  4.193825e+01    6.838611e+03
  4.196113e+01    6.844933e+03
  4.198402e+01    6.852181e+03
  4.200691e+01    6.862612e+03
  4.202979e+01    6.877050e+03
  4.205268e+01    6.896648e+03
  4.207556e+01    6.943001e+03
  4.209845e+01    7.030891e+03
  4.212133e+01    7.186702e+03
  4.214422e+01    7.458497e+03
  4.216710e+01    7.818292e+03
  4.218999e+01    8.122412e+03
  4.221287e+01    8.212294e+03
  4.223576e+01    8.060758e+03
  4.225864e+01    7.761957e+03
  4.228153e+01    7.420461e+03
  4.230442e+01    7.165007e+03
  4.232730e+01    7.006678e+03
  4.235019e+01    6.924893e+03
  4.237307e+01    6.882012e+03
  4.239596e+01    6.850510e+03
  4.241884e+01    6.839616e+03
  4.244173e+01    6.833560e+03
  4.246461e+01    6.825563e+03
  4.248750e+01    6.817355e+03
  4.251038e+01    6.813881e+03
  4.253327e+01    6.809625e+03
  4.255615e+01    6.802359e+03
  4.257904e+01    6.790081e+03
  4.260192e+01    6.791042e+03
  4.262481e+01    6.793186e+03
  4.264770e+01    6.791091e+03
  4.267058e+01    6.796459e+03
  4.269347e+01    6.793060e+03
  4.271635e+01    6.789548e+03
  4.273924e+01    6.790841e+03
  4.276212e+01    6.796433e+03
  4.278501e+01    6.794008e+03
  4.280789e+01    6.789047e+03
  4.283078e+01    6.792607e+03
  4.285366e+01    6.802042e+03
  4.287655e+01    6.798864e+03
  4.289943e+01    6.807521e+03
  4.292232e+01    6.817617e+03
  4.294521e+01    6.835085e+03
  4.296809e+01    6.847368e+03
  4.299098e+01    6.861662e+03
  4.301386e+01    6.883999e+03
  4.303675e+01    6.910648e+03
  4.305963e+01    6.934586e+03
  4.308252e+01    6.957376e+03
  4.310540e+01    6.998277e+03
  4.312829e+01    7.069696e+03
  4.315117e+01    7.207380e+03
  4.317406e+01    7.430919e+03
  4.319694e+01    7.877287e+03
  4.321983e+01    8.667404e+03
  4.324272e+01    9.897844e+03
  4.326560e+01    1.130777e+04
  4.328849e+01    1.223640e+04
  4.331137e+01    1.225524e+04
  4.333426e+01    1.144213e+04
  4.335714e+01    1.020919e+04
  4.338003e+01    8.988815e+03
  4.340291e+01    8.147733e+03
  4.342580e+01    7.688455e+03
  4.344868e+01    7.461982e+03
  4.347157e+01    7.363670e+03
  4.349445e+01    7.347115e+03
  4.351734e+01    7.396353e+03
  4.354022e+01    7.493020e+03
  4.356311e+01    7.706115e+03
  4.358600e+01    8.085423e+03
  4.360888e+01    8.820247e+03
  4.363177e+01    1.027093e+04
  4.365465e+01    1.320846e+04
  4.367754e+01    1.895219e+04
  4.370042e+01    2.560011e+04
  4.372331e+01    2.918159e+04
  4.374619e+01    2.896740e+04
  4.376908e+01    2.525129e+04
  4.379196e+01    1.935301e+04
  4.381485e+01    1.461023e+04
  4.383773e+01    1.141867e+04
  4.386062e+01    9.522514e+03
  4.388351e+01    8.489625e+03
  4.390639e+01    7.924332e+03
  4.392928e+01    7.598265e+03
  4.395216e+01    7.408228e+03
  4.397505e+01    7.286702e+03
  4.399793e+01    7.211677e+03
  4.402082e+01    7.172008e+03
  4.404370e+01    7.168049e+03
  4.406659e+01    7.167675e+03
  4.408947e+01    7.190878e+03
  4.411236e+01    7.258945e+03
  4.413524e+01    7.342788e+03
  4.415813e+01    7.463340e+03
  4.418102e+01    7.685355e+03
  4.420390e+01    8.048112e+03
  4.422679e+01    8.674927e+03
  4.424967e+01    9.847339e+03
  4.427256e+01    1.208730e+04
  4.429544e+01    1.601422e+04
  4.431833e+01    2.163113e+04
  4.434121e+01    2.716857e+04
  4.436410e+01    2.983539e+04
  4.438698e+01    2.855345e+04
  4.440987e+01    2.428502e+04
  4.443275e+01    1.877000e+04
  4.445564e+01    1.397175e+04
  4.447853e+01    1.090703e+04
  4.450141e+01    9.222286e+03
  4.452430e+01    8.317786e+03
  4.454718e+01    7.799440e+03
  4.457007e+01    7.485484e+03
  4.459295e+01    7.306010e+03
  4.461584e+01    7.162487e+03
  4.463872e+01    7.053619e+03
  4.466161e+01    6.972382e+03
  4.468449e+01    6.918361e+03
  4.470738e+01    6.869058e+03
  4.473026e+01    6.838184e+03
  4.475315e+01    6.808533e+03
  4.477603e+01    6.776755e+03
  4.479892e+01    6.761228e+03
  4.482181e+01    6.744067e+03
  4.484469e+01    6.722377e+03
  4.486758e+01    6.710546e+03
  4.489046e+01    6.708484e+03
  4.491335e+01    6.701604e+03
  4.493623e+01    6.701542e+03
  4.495912e+01    6.696428e+03
  4.498200e+01    6.700568e+03
  4.500489e+01    6.684960e+03
  4.502777e+01    6.684727e+03
  4.505066e+01    6.690493e+03
  4.507354e+01    6.684142e+03
  4.509643e+01    6.689527e+03
  4.511932e+01    6.699231e+03
  4.514220e+01    6.711982e+03
  4.516509e+01    6.725677e+03
  4.518797e+01    6.758293e+03
  4.521086e+01    6.804416e+03
  4.523374e+01    6.874373e+03
  4.525663e+01    6.995775e+03
  4.527951e+01    7.206250e+03
  4.530240e+01    7.595715e+03
  4.532528e+01    8.312656e+03
  4.534817e+01    9.536186e+03
  4.537105e+01    1.116611e+04
  4.539394e+01    1.256483e+04
  4.541683e+01    1.301818e+04
  4.543971e+01    1.243759e+04
  4.546260e+01    1.112705e+04
  4.548548e+01    9.588494e+03
  4.550837e+01    8.362421e+03
  4.553125e+01    7.596253e+03
  4.555414e+01    7.178260e+03
  4.557702e+01    6.952481e+03
  4.559991e+01    6.815707e+03
  4.562279e+01    6.717688e+03
  4.564568e+01    6.670011e+03
  4.566856e+01    6.636074e+03
  4.569145e+01    6.611207e+03
  4.571433e+01    6.588096e+03
  4.573722e+01    6.561252e+03
  4.576011e+01    6.544443e+03
  4.578299e+01    6.530853e+03
  4.580588e+01    6.521077e+03
  4.582876e+01    6.497791e+03
  4.585165e+01    6.496484e+03
  4.587453e+01    6.491677e+03
  4.589742e+01    6.479046e+03
  4.592030e+01    6.467583e+03
  4.594319e+01    6.467848e+03
  4.596607e+01    6.465146e+03
  4.598896e+01    6.449152e+03
  4.601184e+01    6.447083e+03
  4.603473e+01    6.436289e+03
  4.605762e+01    6.442134e+03
  4.608050e+01    6.429627e+03
  4.610339e+01    6.429516e+03
  4.612627e+01    6.436694e+03
  4.614916e+01    6.429870e+03
  4.617204e+01    6.431629e+03
  4.619493e+01    6.439513e+03
  4.621781e+01    6.451699e+03
  4.624070e+01    6.467980e+03
  4.626358e+01    6.494770e+03
  4.628647e+01    6.524789e+03
  4.630935e+01    6.599235e+03
  4.633224e+01    6.751812e+03
  4.635513e+01    6.992235e+03
  4.637801e+01    7.387055e+03
  4.640090e+01    7.904986e+03
  4.642378e+01    8.312894e+03
  4.644667e+01    8.421593e+03
  4.646955e+01    8.207558e+03
  4.649244e+01    7.799166e+03
  4.651532e+01    7.322104e+03
  4.653821e+01    6.962656e+03
  4.656109e+01    6.748270e+03
  4.658398e+01    6.628715e+03
  4.660686e+01    6.573553e+03
  4.662975e+01    6.529969e+03
  4.665263e+01    6.504889e+03
  4.667552e+01    6.490841e+03
  4.669841e+01    6.485510e+03
  4.672129e+01    6.474519e+03
  4.674418e+01    6.472032e+03
  4.676706e+01    6.472386e+03
  4.678995e+01    6.482430e+03
  4.681283e+01    6.491790e+03
  4.683572e+01    6.507052e+03
  4.685860e+01    6.497321e+03
  4.688149e+01    6.493875e+03
  4.690437e+01    6.501170e+03
  4.692726e+01    6.521419e+03
  4.695014e+01    6.522781e+03
  4.697303e+01    6.522527e+03
  4.699592e+01    6.554114e+03
  4.701880e+01    6.568559e+03
  4.704169e+01    6.574374e+03
  4.706457e+01    6.590253e+03
  4.708746e+01    6.604011e+03
  4.711034e+01    6.623840e+03
  4.713323e+01    6.657796e+03
  4.715611e+01    6.654477e+03
  4.717900e+01    6.668119e+03
  4.720188e+01    6.692564e+03
  4.722477e+01    6.720027e+03
  4.724765e+01    6.752025e+03
  4.727054e+01    6.781479e+03
  4.729343e+01    6.823304e+03
  4.731631e+01    6.881779e+03
  4.733920e+01    6.986213e+03
  4.736208e+01    7.181928e+03
  4.738497e+01    7.481967e+03
  4.740785e+01    7.866144e+03
  4.743074e+01    8.199259e+03
  4.745362e+01    8.316790e+03
  4.747651e+01    8.238852e+03
  4.749939e+01    8.025473e+03
  4.752228e+01    7.751237e+03
  4.754516e+01    7.561901e+03
  4.756805e+01    7.416057e+03
  4.759094e+01    7.442006e+03
  4.761382e+01    7.494402e+03
  4.763671e+01    7.500477e+03
  4.765959e+01    7.472793e+03
  4.768248e+01    7.466727e+03
  4.770536e+01    7.434423e+03
  4.772825e+01    7.306883e+03
  4.775113e+01    7.353105e+03
  4.777402e+01    7.211438e+03
  4.779690e+01    7.192817e+03
  4.781979e+01    6.938391e+03
  4.784267e+01    6.700807e+03
  4.786556e+01    5.756102e+03
  4.788844e+01    2.792411e+03