File: Output/ROCK_XRD/WAM39B_integrated/rampe2/wam39b_rampe_2_xrd_000013_integrated.dat
# == pyFAI calibration ==
# Distance Sample to Detector: 0.261615 m
# PONI: 2.023e-01, 2.348e-01 m
# Rotations: -0.026380 0.002005 0.000000 rad
#
# == Fit2d calibration ==
# Distance Sample-beamCenter: 261.707 mm
# Center: x=6119.331, y=5134.776 pix
# Tilt: 1.516 deg  TiltPlanRot: 4.347 deg
#
# Detector Rayonix SX165	 PixelSize= 3.950e-05, 3.950e-05 m
#    Detector has a mask: True
#    Detector has a dark current: False
#    detector has a flat field: False
#
# Wavelength: 1.12713e-10 m
# Mask applied: from detector
# Dark current applied: False
# Flat field applied: False
# Polarization factor: None
# Normalization factor: 1.0
# --> ROCK\\WAM39B_integrated\wam39b_rampe_2_xrd_000013_integrated.dat
#       2th_deg             I
  2.502596e+01    4.520905e+03
  2.504885e+01    1.187796e+04
  2.507173e+01    1.599591e+04
  2.509462e+01    1.699879e+04
  2.511750e+01    1.860046e+04
  2.514039e+01    1.926861e+04
  2.516327e+01    1.917252e+04
  2.518616e+01    1.900185e+04
  2.520905e+01    1.886481e+04
  2.523193e+01    1.864911e+04
  2.525482e+01    1.872913e+04
  2.527770e+01    1.906575e+04
  2.530059e+01    1.897123e+04
  2.532347e+01    1.877737e+04
  2.534636e+01    1.860926e+04
  2.536924e+01    1.849884e+04
  2.539213e+01    1.847094e+04
  2.541501e+01    1.846564e+04
  2.543790e+01    1.847495e+04
  2.546078e+01    1.850604e+04
  2.548367e+01    1.844682e+04
  2.550656e+01    1.829959e+04
  2.552944e+01    1.822441e+04
  2.555233e+01    1.846533e+04
  2.557521e+01    1.861242e+04
  2.559810e+01    1.861578e+04
  2.562098e+01    1.868398e+04
  2.564387e+01    1.878451e+04
  2.566675e+01    1.887089e+04
  2.568964e+01    1.885051e+04
  2.571252e+01    1.883950e+04
  2.573541e+01    1.888801e+04
  2.575829e+01    1.887506e+04
  2.578118e+01    1.878311e+04
  2.580407e+01    1.873539e+04
  2.582695e+01    1.870954e+04
  2.584984e+01    1.866183e+04
  2.587272e+01    1.859810e+04
  2.589561e+01    1.858205e+04
  2.591849e+01    1.849946e+04
  2.594138e+01    1.844075e+04
  2.596426e+01    1.842740e+04
  2.598715e+01    1.832683e+04
  2.601003e+01    1.832191e+04
  2.603292e+01    1.827595e+04
  2.605580e+01    1.824909e+04
  2.607869e+01    1.830706e+04
  2.610157e+01    1.836973e+04
  2.612446e+01    1.847819e+04
  2.614735e+01    1.867549e+04
  2.617023e+01    1.897180e+04
  2.619312e+01    1.945287e+04
  2.621600e+01    2.022041e+04
  2.623889e+01    2.131923e+04
  2.626177e+01    2.313243e+04
  2.628466e+01    2.591950e+04
  2.630754e+01    2.983988e+04
  2.633043e+01    3.456910e+04
  2.635331e+01    3.953747e+04
  2.637620e+01    4.441495e+04
  2.639908e+01    4.869332e+04
  2.642197e+01    5.101312e+04
  2.644486e+01    4.949255e+04
  2.646774e+01    4.410212e+04
  2.649063e+01    3.691721e+04
  2.651351e+01    3.049395e+04
  2.653640e+01    2.575946e+04
  2.655928e+01    2.264907e+04
  2.658217e+01    2.066852e+04
  2.660505e+01    1.940222e+04
  2.662794e+01    1.857731e+04
  2.665082e+01    1.799248e+04
  2.667371e+01    1.756496e+04
  2.669659e+01    1.724039e+04
  2.671948e+01    1.700276e+04
  2.674237e+01    1.682794e+04
  2.676525e+01    1.666996e+04
  2.678814e+01    1.652997e+04
  2.681102e+01    1.642559e+04
  2.683391e+01    1.632749e+04
  2.685679e+01    1.624887e+04
  2.687968e+01    1.618544e+04
  2.690256e+01    1.608326e+04
  2.692545e+01    1.602853e+04
  2.694833e+01    1.595762e+04
  2.697122e+01    1.588016e+04
  2.699410e+01    1.582087e+04
  2.701699e+01    1.580018e+04
  2.703988e+01    1.572421e+04
  2.706276e+01    1.567821e+04
  2.708565e+01    1.565429e+04
  2.710853e+01    1.559702e+04
  2.713142e+01    1.554783e+04
  2.715430e+01    1.550201e+04
  2.717719e+01    1.545426e+04
  2.720007e+01    1.538886e+04
  2.722296e+01    1.534232e+04
  2.724584e+01    1.528506e+04
  2.726873e+01    1.527395e+04
  2.729161e+01    1.523580e+04
  2.731450e+01    1.519822e+04
  2.733738e+01    1.514510e+04
  2.736027e+01    1.510301e+04
  2.738316e+01    1.506852e+04
  2.740604e+01    1.502036e+04
  2.742893e+01    1.499167e+04
  2.745181e+01    1.498580e+04
  2.747470e+01    1.496395e+04
  2.749758e+01    1.493402e+04
  2.752047e+01    1.490120e+04
  2.754335e+01    1.488496e+04
  2.756624e+01    1.488517e+04
  2.758912e+01    1.487618e+04
  2.761201e+01    1.485540e+04
  2.763489e+01    1.484524e+04
  2.765778e+01    1.486030e+04
  2.768067e+01    1.487558e+04
  2.770355e+01    1.489107e+04
  2.772644e+01    1.488415e+04
  2.774932e+01    1.490044e+04
  2.777221e+01    1.496080e+04
  2.779509e+01    1.503583e+04
  2.781798e+01    1.516563e+04
  2.784086e+01    1.532582e+04
  2.786375e+01    1.558645e+04
  2.788663e+01    1.601069e+04
  2.790952e+01    1.668623e+04
  2.793240e+01    1.769702e+04
  2.795529e+01    1.887767e+04
  2.797818e+01    1.978183e+04
  2.800106e+01    1.988741e+04
  2.802395e+01    1.911476e+04
  2.804683e+01    1.789630e+04
  2.806972e+01    1.673855e+04
  2.809260e+01    1.589785e+04
  2.811549e+01    1.534629e+04
  2.813837e+01    1.499050e+04
  2.816126e+01    1.473955e+04
  2.818414e+01    1.455580e+04
  2.820703e+01    1.440178e+04
  2.822991e+01    1.426043e+04
  2.825280e+01    1.414748e+04
  2.827568e+01    1.405667e+04
  2.829857e+01    1.397292e+04
  2.832146e+01    1.389232e+04
  2.834434e+01    1.380599e+04
  2.836723e+01    1.372281e+04
  2.839011e+01    1.364692e+04
  2.841300e+01    1.357730e+04
  2.843588e+01    1.351570e+04
  2.845877e+01    1.343990e+04
  2.848165e+01    1.338078e+04
  2.850454e+01    1.333593e+04
  2.852742e+01    1.330300e+04
  2.855031e+01    1.326877e+04
  2.857319e+01    1.320768e+04
  2.859608e+01    1.314668e+04
  2.861897e+01    1.310163e+04
  2.864185e+01    1.305444e+04
  2.866474e+01    1.301351e+04
  2.868762e+01    1.295896e+04
  2.871051e+01    1.293026e+04
  2.873339e+01    1.289756e+04
  2.875628e+01    1.286159e+04
  2.877916e+01    1.283405e+04
  2.880205e+01    1.280728e+04
  2.882493e+01    1.278896e+04
  2.884782e+01    1.277516e+04
  2.887070e+01    1.275853e+04
  2.889359e+01    1.273480e+04
  2.891648e+01    1.271028e+04
  2.893936e+01    1.267772e+04
  2.896225e+01    1.263830e+04
  2.898513e+01    1.260717e+04
  2.900802e+01    1.256992e+04
  2.903090e+01    1.250868e+04
  2.905379e+01    1.244560e+04
  2.907667e+01    1.239045e+04
  2.909956e+01    1.232105e+04
  2.912244e+01    1.225247e+04
  2.914533e+01    1.218490e+04
  2.916821e+01    1.212421e+04
  2.919110e+01    1.206948e+04
  2.921398e+01    1.201964e+04
  2.923687e+01    1.197467e+04
  2.925976e+01    1.192075e+04
  2.928264e+01    1.187300e+04
  2.930553e+01    1.183587e+04
  2.932841e+01    1.179708e+04
  2.935130e+01    1.176319e+04
  2.937418e+01    1.174774e+04
  2.939707e+01    1.177887e+04
  2.941995e+01    1.182867e+04
  2.944284e+01    1.195707e+04
  2.946572e+01    1.221846e+04
  2.948861e+01    1.259314e+04
  2.951149e+01    1.299533e+04
  2.953438e+01    1.324959e+04
  2.955727e+01    1.315420e+04
  2.958015e+01    1.274893e+04
  2.960304e+01    1.226225e+04
  2.962592e+01    1.183430e+04
  2.964881e+01    1.153482e+04
  2.967169e+01    1.134254e+04
  2.969458e+01    1.122148e+04
  2.971746e+01    1.113542e+04
  2.974035e+01    1.106286e+04
  2.976323e+01    1.100387e+04
  2.978612e+01    1.096791e+04
  2.980900e+01    1.093867e+04
  2.983189e+01    1.091433e+04
  2.985478e+01    1.088596e+04
  2.987766e+01    1.084455e+04
  2.990055e+01    1.082365e+04
  2.992343e+01    1.081358e+04
  2.994632e+01    1.079492e+04
  2.996920e+01    1.077824e+04
  2.999209e+01    1.077385e+04
  3.001497e+01    1.077369e+04
  3.003786e+01    1.076726e+04
  3.006074e+01    1.076028e+04
  3.008363e+01    1.075975e+04
  3.010651e+01    1.077494e+04
  3.012940e+01    1.079045e+04
  3.015228e+01    1.078438e+04
  3.017517e+01    1.079074e+04
  3.019806e+01    1.080947e+04
  3.022094e+01    1.081605e+04
  3.024383e+01    1.084070e+04
  3.026671e+01    1.089332e+04
  3.028960e+01    1.095160e+04
  3.031248e+01    1.103006e+04
  3.033537e+01    1.115144e+04
  3.035825e+01    1.131524e+04
  3.038114e+01    1.152909e+04
  3.040402e+01    1.185551e+04
  3.042691e+01    1.234923e+04
  3.044979e+01    1.310166e+04
  3.047268e+01    1.429064e+04
  3.049557e+01    1.623916e+04
  3.051845e+01    1.940501e+04
  3.054134e+01    2.444732e+04
  3.056422e+01    3.204430e+04
  3.058711e+01    4.128100e+04
  3.060999e+01    4.878083e+04
  3.063288e+01    5.093680e+04
  3.065576e+01    4.700364e+04
  3.067865e+01    3.925226e+04
  3.070153e+01    3.104731e+04
  3.072442e+01    2.433434e+04
  3.074730e+01    1.971639e+04
  3.077019e+01    1.674594e+04
  3.079308e+01    1.489897e+04
  3.081596e+01    1.377079e+04
  3.083885e+01    1.315727e+04
  3.086173e+01    1.296282e+04
  3.088462e+01    1.322080e+04
  3.090750e+01    1.409565e+04
  3.093039e+01    1.593135e+04
  3.095327e+01    1.907862e+04
  3.097616e+01    2.331342e+04
  3.099904e+01    2.715415e+04
  3.102193e+01    2.857685e+04
  3.104481e+01    2.673146e+04
  3.106770e+01    2.267366e+04
  3.109059e+01    1.832042e+04
  3.111347e+01    1.504062e+04
  3.113636e+01    1.299293e+04
  3.115924e+01    1.181354e+04
  3.118213e+01    1.113743e+04
  3.120501e+01    1.072766e+04
  3.122790e+01    1.045816e+04
  3.125078e+01    1.027558e+04
  3.127367e+01    1.014448e+04
  3.129655e+01    1.004085e+04
  3.131944e+01    9.959691e+03
  3.134232e+01    9.891368e+03
  3.136521e+01    9.838147e+03
  3.138809e+01    9.787375e+03
  3.141098e+01    9.748525e+03
  3.143387e+01    9.719761e+03
  3.145675e+01    9.688040e+03
  3.147964e+01    9.648441e+03
  3.150252e+01    9.614211e+03
  3.152541e+01    9.590240e+03
  3.154829e+01    9.555652e+03
  3.157118e+01    9.531175e+03
  3.159406e+01    9.511995e+03
  3.161695e+01    9.486901e+03
  3.163983e+01    9.460408e+03
  3.166272e+01    9.440744e+03
  3.168560e+01    9.418124e+03
  3.170849e+01    9.402590e+03
  3.173138e+01    9.384065e+03
  3.175426e+01    9.356621e+03
  3.177715e+01    9.335985e+03
  3.180003e+01    9.324571e+03
  3.182292e+01    9.311449e+03
  3.184580e+01    9.296959e+03
  3.186869e+01    9.279398e+03
  3.189157e+01    9.266881e+03
  3.191446e+01    9.256636e+03
  3.193734e+01    9.244885e+03
  3.196023e+01    9.234658e+03
  3.198311e+01    9.220749e+03
  3.200600e+01    9.205225e+03
  3.202889e+01    9.188658e+03
  3.205177e+01    9.174314e+03
  3.207466e+01    9.160518e+03
  3.209754e+01    9.136258e+03
  3.212043e+01    9.124209e+03
  3.214331e+01    9.112946e+03
  3.216620e+01    9.107134e+03
  3.218908e+01    9.096046e+03
  3.221197e+01    9.092192e+03
  3.223485e+01    9.093355e+03
  3.225774e+01    9.102644e+03
  3.228062e+01    9.125319e+03
  3.230351e+01    9.173359e+03
  3.232639e+01    9.272601e+03
  3.234928e+01    9.456655e+03
  3.237217e+01    9.769441e+03
  3.239505e+01    1.017073e+04
  3.241794e+01    1.053143e+04
  3.244082e+01    1.064145e+04
  3.246371e+01    1.045141e+04
  3.248659e+01    1.007170e+04
  3.250948e+01    9.675977e+03
  3.253236e+01    9.384539e+03
  3.255525e+01    9.203643e+03
  3.257813e+01    9.097939e+03
  3.260102e+01    9.037844e+03
  3.262390e+01    9.007489e+03
  3.264679e+01    8.985685e+03
  3.266968e+01    8.969503e+03
  3.269256e+01    8.959455e+03
  3.271545e+01    8.943085e+03
  3.273833e+01    8.925327e+03
  3.276122e+01    8.898457e+03
  3.278410e+01    8.865435e+03
  3.280699e+01    8.827168e+03
  3.282987e+01    8.800868e+03
  3.285276e+01    8.777340e+03
  3.287564e+01    8.740525e+03
  3.289853e+01    8.714302e+03
  3.292141e+01    8.676382e+03
  3.294430e+01    8.642252e+03
  3.296719e+01    8.615897e+03
  3.299007e+01    8.590759e+03
  3.301296e+01    8.577624e+03
  3.303584e+01    8.570405e+03
  3.305873e+01    8.551690e+03
  3.308161e+01    8.534252e+03
  3.310450e+01    8.525099e+03
  3.312738e+01    8.506319e+03
  3.315027e+01    8.490220e+03
  3.317315e+01    8.479193e+03
  3.319604e+01    8.477296e+03
  3.321892e+01    8.472857e+03
  3.324181e+01    8.461371e+03
  3.326469e+01    8.449413e+03
  3.328758e+01    8.450156e+03
  3.331047e+01    8.447158e+03
  3.333335e+01    8.433716e+03
  3.335624e+01    8.425593e+03
  3.337912e+01    8.426604e+03
  3.340201e+01    8.425812e+03
  3.342489e+01    8.429841e+03
  3.344778e+01    8.430679e+03
  3.347066e+01    8.436686e+03
  3.349355e+01    8.448149e+03
  3.351643e+01    8.468219e+03
  3.353932e+01    8.500613e+03
  3.356220e+01    8.550695e+03
  3.358509e+01    8.623163e+03
  3.360798e+01    8.730492e+03
  3.363086e+01    8.914076e+03
  3.365375e+01    9.245582e+03
  3.367663e+01    9.841863e+03
  3.369952e+01    1.094843e+04
  3.372240e+01    1.291045e+04
  3.374529e+01    1.584876e+04
  3.376817e+01    1.915672e+04
  3.379106e+01    2.134998e+04
  3.381394e+01    2.121669e+04
  3.383683e+01    1.890560e+04
  3.385971e+01    1.567140e+04
  3.388260e+01    1.281019e+04
  3.390549e+01    1.087192e+04
  3.392837e+01    9.744032e+03
  3.395126e+01    9.116977e+03
  3.397414e+01    8.767822e+03
  3.399703e+01    8.543147e+03
  3.401991e+01    8.402381e+03
  3.404280e+01    8.308976e+03
  3.406568e+01    8.233144e+03
  3.408857e+01    8.177235e+03
  3.411145e+01    8.141812e+03
  3.413434e+01    8.106101e+03
  3.415722e+01    8.076655e+03
  3.418011e+01    8.060021e+03
  3.420300e+01    8.038990e+03
  3.422588e+01    8.016512e+03
  3.424877e+01    8.003727e+03
  3.427165e+01    7.989370e+03
  3.429454e+01    7.974175e+03
  3.431742e+01    7.967311e+03
  3.434031e+01    7.959246e+03
  3.436319e+01    7.952481e+03
  3.438608e+01    7.939403e+03
  3.440896e+01    7.937154e+03
  3.443185e+01    7.926199e+03
  3.445473e+01    7.910835e+03
  3.447762e+01    7.903382e+03
  3.450050e+01    7.898354e+03
  3.452339e+01    7.890271e+03
  3.454628e+01    7.886597e+03
  3.456916e+01    7.881906e+03
  3.459205e+01    7.879801e+03
  3.461493e+01    7.872768e+03
  3.463782e+01    7.864558e+03
  3.466070e+01    7.856899e+03
  3.468359e+01    7.857752e+03
  3.470647e+01    7.850647e+03
  3.472936e+01    7.832727e+03
  3.475224e+01    7.819872e+03
  3.477513e+01    7.815715e+03
  3.479801e+01    7.800191e+03
  3.482090e+01    7.783687e+03
  3.484379e+01    7.770580e+03
  3.486667e+01    7.761542e+03
  3.488956e+01    7.749758e+03
  3.491244e+01    7.726895e+03
  3.493533e+01    7.704833e+03
  3.495821e+01    7.681990e+03
  3.498110e+01    7.663677e+03
  3.500398e+01    7.642334e+03
  3.502687e+01    7.626869e+03
  3.504975e+01    7.611955e+03
  3.507264e+01    7.596315e+03
  3.509552e+01    7.579465e+03
  3.511841e+01    7.560539e+03
  3.514130e+01    7.538104e+03
  3.516418e+01    7.528126e+03
  3.518707e+01    7.513077e+03
  3.520995e+01    7.507560e+03
  3.523284e+01    7.508864e+03
  3.525572e+01    7.500519e+03
  3.527861e+01    7.483200e+03
  3.530149e+01    7.474308e+03
  3.532438e+01    7.451596e+03
  3.534726e+01    7.429385e+03
  3.537015e+01    7.415679e+03
  3.539303e+01    7.403072e+03
  3.541592e+01    7.392414e+03
  3.543880e+01    7.375646e+03
  3.546169e+01    7.367784e+03
  3.548458e+01    7.356377e+03
  3.550746e+01    7.353067e+03
  3.553035e+01    7.350287e+03
  3.555323e+01    7.336648e+03
  3.557612e+01    7.325483e+03
  3.559900e+01    7.320998e+03
  3.562189e+01    7.308871e+03
  3.564477e+01    7.298124e+03
  3.566766e+01    7.292213e+03
  3.569054e+01    7.283323e+03
  3.571343e+01    7.277876e+03
  3.573631e+01    7.279891e+03
  3.575920e+01    7.270107e+03
  3.578209e+01    7.271213e+03
  3.580497e+01    7.271644e+03
  3.582786e+01    7.266469e+03
  3.585074e+01    7.262437e+03
  3.587363e+01    7.263051e+03
  3.589651e+01    7.261729e+03
  3.591940e+01    7.264357e+03
  3.594228e+01    7.274189e+03
  3.596517e+01    7.279741e+03
  3.598805e+01    7.282387e+03
  3.601094e+01    7.289014e+03
  3.603382e+01    7.292504e+03
  3.605671e+01    7.292346e+03
  3.607960e+01    7.307938e+03
  3.610248e+01    7.323751e+03
  3.612537e+01    7.339668e+03
  3.614825e+01    7.366607e+03
  3.617114e+01    7.401777e+03
  3.619402e+01    7.447481e+03
  3.621691e+01    7.512973e+03
  3.623979e+01    7.634309e+03
  3.626268e+01    7.856375e+03
  3.628556e+01    8.251199e+03
  3.630845e+01    8.974440e+03
  3.633133e+01    1.010784e+04
  3.635422e+01    1.144123e+04
  3.637710e+01    1.241009e+04
  3.639999e+01    1.250099e+04
  3.642288e+01    1.170513e+04
  3.644576e+01    1.045839e+04
  3.646865e+01    9.293927e+03
  3.649153e+01    8.476776e+03
  3.651442e+01    7.991509e+03
  3.653730e+01    7.744671e+03
  3.656019e+01    7.606816e+03
  3.658307e+01    7.519539e+03
  3.660596e+01    7.473957e+03
  3.662884e+01    7.449086e+03
  3.665173e+01    7.424902e+03
  3.667461e+01    7.413039e+03
  3.669750e+01    7.411256e+03
  3.672039e+01    7.406052e+03
  3.674327e+01    7.404533e+03
  3.676616e+01    7.397164e+03
  3.678904e+01    7.404895e+03
  3.681193e+01    7.410913e+03
  3.683481e+01    7.409704e+03
  3.685770e+01    7.408319e+03
  3.688058e+01    7.423784e+03
  3.690347e+01    7.429872e+03
  3.692635e+01    7.443225e+03
  3.694924e+01    7.456612e+03
  3.697212e+01    7.470949e+03
  3.699501e+01    7.482990e+03
  3.701790e+01    7.491243e+03
  3.704078e+01    7.504342e+03
  3.706367e+01    7.526144e+03
  3.708655e+01    7.549407e+03
  3.710944e+01    7.585467e+03
  3.713232e+01    7.611414e+03
  3.715521e+01    7.642917e+03
  3.717809e+01    7.681528e+03
  3.720098e+01    7.728281e+03
  3.722386e+01    7.786637e+03
  3.724675e+01    7.837842e+03
  3.726963e+01    7.906962e+03
  3.729252e+01    7.992862e+03
  3.731541e+01    8.103245e+03
  3.733829e+01    8.248879e+03
  3.736118e+01    8.439698e+03
  3.738406e+01    8.687795e+03
  3.740695e+01    9.044377e+03
  3.742983e+01    9.568119e+03
  3.745272e+01    1.038698e+04
  3.747560e+01    1.179341e+04
  3.749849e+01    1.436933e+04
  3.752137e+01    1.922638e+04
  3.754426e+01    2.804188e+04
  3.756714e+01    4.185936e+04
  3.759003e+01    5.804021e+04
  3.761291e+01    6.936595e+04
  3.763580e+01    7.003259e+04
  3.765869e+01    6.041643e+04
  3.768157e+01    4.548434e+04
  3.770446e+01    3.129436e+04
  3.772734e+01    2.135995e+04
  3.775023e+01    1.561285e+04
  3.777311e+01    1.253127e+04
  3.779600e+01    1.088195e+04
  3.781888e+01    9.912466e+03
  3.784177e+01    9.307238e+03
  3.786465e+01    8.895593e+03
  3.788754e+01    8.607439e+03
  3.791042e+01    8.405095e+03
  3.793331e+01    8.256795e+03
  3.795620e+01    8.128058e+03
  3.797908e+01    8.014891e+03
  3.800197e+01    7.929707e+03
  3.802485e+01    7.859439e+03
  3.804774e+01    7.805031e+03
  3.807062e+01    7.769809e+03
  3.809351e+01    7.735546e+03
  3.811639e+01    7.707339e+03
  3.813928e+01    7.680117e+03
  3.816216e+01    7.649254e+03
  3.818505e+01    7.621274e+03
  3.820793e+01    7.596879e+03
  3.823082e+01    7.576102e+03
  3.825371e+01    7.563073e+03
  3.827659e+01    7.555743e+03
  3.829948e+01    7.550706e+03
  3.832236e+01    7.536735e+03
  3.834525e+01    7.528500e+03
  3.836813e+01    7.531690e+03
  3.839102e+01    7.524370e+03
  3.841390e+01    7.517089e+03
  3.843679e+01    7.513926e+03
  3.845967e+01    7.515134e+03
  3.848256e+01    7.512785e+03
  3.850544e+01    7.519286e+03
  3.852833e+01    7.526990e+03
  3.855121e+01    7.526287e+03
  3.857410e+01    7.532702e+03
  3.859699e+01    7.541817e+03
  3.861987e+01    7.556909e+03
  3.864276e+01    7.582485e+03
  3.866564e+01    7.619719e+03
  3.868853e+01    7.692050e+03
  3.871141e+01    7.817980e+03
  3.873430e+01    8.069402e+03
  3.875718e+01    8.500355e+03
  3.878007e+01    9.096708e+03
  3.880295e+01    9.643130e+03
  3.882584e+01    9.874992e+03
  3.884872e+01    9.682292e+03
  3.887161e+01    9.188640e+03
  3.889450e+01    8.611470e+03
  3.891738e+01    8.142244e+03
  3.894027e+01    7.846529e+03
  3.896315e+01    7.684376e+03
  3.898604e+01    7.588854e+03
  3.900892e+01    7.537267e+03
  3.903181e+01    7.498232e+03
  3.905469e+01    7.464699e+03
  3.907758e+01    7.446613e+03
  3.910046e+01    7.437088e+03
  3.912335e+01    7.427942e+03
  3.914623e+01    7.415891e+03
  3.916912e+01    7.404599e+03
  3.919201e+01    7.410597e+03
  3.921489e+01    7.389271e+03
  3.923778e+01    7.380426e+03
  3.926066e+01    7.372786e+03
  3.928355e+01    7.367855e+03
  3.930643e+01    7.363774e+03
  3.932932e+01    7.357666e+03
  3.935220e+01    7.359265e+03
  3.937509e+01    7.359315e+03
  3.939797e+01    7.345606e+03
  3.942086e+01    7.346338e+03
  3.944374e+01    7.336835e+03
  3.946663e+01    7.331222e+03
  3.948951e+01    7.318702e+03
  3.951240e+01    7.307763e+03
  3.953529e+01    7.294024e+03
  3.955817e+01    7.288391e+03
  3.958106e+01    7.279251e+03
  3.960394e+01    7.264404e+03
  3.962683e+01    7.251329e+03
  3.964971e+01    7.239366e+03
  3.967260e+01    7.231859e+03
  3.969548e+01    7.225411e+03
  3.971837e+01    7.221266e+03
  3.974125e+01    7.214280e+03
  3.976414e+01    7.206376e+03
  3.978702e+01    7.212017e+03
  3.980991e+01    7.210738e+03
  3.983280e+01    7.215477e+03
  3.985568e+01    7.234972e+03
  3.987857e+01    7.272597e+03
  3.990145e+01    7.344307e+03
  3.992434e+01    7.434683e+03
  3.994722e+01    7.580763e+03
  3.997011e+01    7.732614e+03
  3.999299e+01    7.793355e+03
  4.001588e+01    7.747087e+03
  4.003876e+01    7.619802e+03
  4.006165e+01    7.475955e+03
  4.008453e+01    7.348074e+03
  4.010742e+01    7.259610e+03
  4.013031e+01    7.208190e+03
  4.015319e+01    7.180637e+03
  4.017608e+01    7.158528e+03
  4.019896e+01    7.144198e+03
  4.022185e+01    7.126179e+03
  4.024473e+01    7.119853e+03
  4.026762e+01    7.118328e+03
  4.029050e+01    7.110249e+03
  4.031339e+01    7.106673e+03
  4.033627e+01    7.100461e+03
  4.035916e+01    7.099237e+03
  4.038204e+01    7.094955e+03
  4.040493e+01    7.094136e+03
  4.042782e+01    7.089500e+03
  4.045070e+01    7.084896e+03
  4.047359e+01    7.082578e+03
  4.049647e+01    7.077518e+03
  4.051936e+01    7.078709e+03
  4.054224e+01    7.070581e+03
  4.056513e+01    7.066672e+03
  4.058801e+01    7.067603e+03
  4.061090e+01    7.065384e+03
  4.063378e+01    7.061712e+03
  4.065667e+01    7.062419e+03
  4.067955e+01    7.062953e+03
  4.070244e+01    7.068146e+03
  4.072532e+01    7.069860e+03
  4.074821e+01    7.076451e+03
  4.077110e+01    7.085055e+03
  4.079398e+01    7.098670e+03
  4.081687e+01    7.103528e+03
  4.083975e+01    7.114344e+03
  4.086264e+01    7.126772e+03
  4.088552e+01    7.148131e+03
  4.090841e+01    7.180993e+03
  4.093129e+01    7.226190e+03
  4.095418e+01    7.302523e+03
  4.097706e+01    7.409374e+03
  4.099995e+01    7.607655e+03
  4.102283e+01    7.984495e+03
  4.104572e+01    8.705519e+03
  4.106861e+01    9.935800e+03
  4.109149e+01    1.162423e+04
  4.111438e+01    1.320529e+04
  4.113726e+01    1.384652e+04
  4.116015e+01    1.331920e+04
  4.118303e+01    1.195621e+04
  4.120592e+01    1.034211e+04
  4.122880e+01    9.019173e+03
  4.125169e+01    8.187935e+03
  4.127457e+01    7.736914e+03
  4.129746e+01    7.506750e+03
  4.132034e+01    7.371871e+03
  4.134323e+01    7.280391e+03
  4.136612e+01    7.231919e+03
  4.138900e+01    7.196182e+03
  4.141189e+01    7.162043e+03
  4.143477e+01    7.133402e+03
  4.145766e+01    7.114047e+03
  4.148054e+01    7.106017e+03
  4.150343e+01    7.089566e+03
  4.152631e+01    7.074008e+03
  4.154920e+01    7.068149e+03
  4.157208e+01    7.055642e+03
  4.159497e+01    7.056902e+03
  4.161785e+01    7.051574e+03
  4.164074e+01    7.042147e+03
  4.166362e+01    7.034951e+03
  4.168651e+01    7.035875e+03
  4.170940e+01    7.034973e+03
  4.173228e+01    7.021898e+03
  4.175517e+01    7.010671e+03
  4.177805e+01    7.001200e+03
  4.180094e+01    6.998661e+03
  4.182382e+01    6.998138e+03
  4.184671e+01    6.996003e+03
  4.186959e+01    6.995125e+03
  4.189248e+01    6.993396e+03
  4.191536e+01    6.998068e+03
  4.193825e+01    7.005525e+03
  4.196113e+01    7.006288e+03
  4.198402e+01    7.011551e+03
  4.200691e+01    7.024180e+03
  4.202979e+01    7.028353e+03
  4.205268e+01    7.032410e+03
  4.207556e+01    7.050374e+03
  4.209845e+01    7.075497e+03
  4.212133e+01    7.112192e+03
  4.214422e+01    7.199773e+03
  4.216710e+01    7.375841e+03
  4.218999e+01    7.674051e+03
  4.221287e+01    8.048332e+03
  4.223576e+01    8.331795e+03
  4.225864e+01    8.386180e+03
  4.228153e+01    8.198112e+03
  4.230442e+01    7.883551e+03
  4.232730e+01    7.541682e+03
  4.235019e+01    7.277905e+03
  4.237307e+01    7.122562e+03
  4.239596e+01    7.030120e+03
  4.241884e+01    6.984117e+03
  4.244173e+01    6.960554e+03
  4.246461e+01    6.947326e+03
  4.248750e+01    6.924298e+03
  4.251038e+01    6.919678e+03
  4.253327e+01    6.911441e+03
  4.255615e+01    6.893287e+03
  4.257904e+01    6.881252e+03
  4.260192e+01    6.882491e+03
  4.262481e+01    6.877532e+03
  4.264770e+01    6.874358e+03
  4.267058e+01    6.876689e+03
  4.269347e+01    6.881985e+03
  4.271635e+01    6.876037e+03
  4.273924e+01    6.865813e+03
  4.276212e+01    6.863570e+03
  4.278501e+01    6.863896e+03
  4.280789e+01    6.870006e+03
  4.283078e+01    6.864970e+03
  4.285366e+01    6.871728e+03
  4.287655e+01    6.865809e+03
  4.289943e+01    6.872907e+03
  4.292232e+01    6.874266e+03
  4.294521e+01    6.884736e+03
  4.296809e+01    6.896796e+03
  4.299098e+01    6.907621e+03
  4.301386e+01    6.924247e+03
  4.303675e+01    6.941679e+03
  4.305963e+01    6.955331e+03
  4.308252e+01    6.977775e+03
  4.310540e+01    7.007855e+03
  4.312829e+01    7.039138e+03
  4.315117e+01    7.085083e+03
  4.317406e+01    7.153054e+03
  4.319694e+01    7.296483e+03
  4.321983e+01    7.546794e+03
  4.324272e+01    8.019810e+03
  4.326560e+01    8.867295e+03
  4.328849e+01    1.014932e+04
  4.331137e+01    1.161517e+04
  4.333426e+01    1.254125e+04
  4.335714e+01    1.250023e+04
  4.338003e+01    1.163027e+04
  4.340291e+01    1.034173e+04
  4.342580e+01    9.097248e+03
  4.344868e+01    8.222744e+03
  4.347157e+01    7.746323e+03
  4.349445e+01    7.512219e+03
  4.351734e+01    7.408337e+03
  4.354022e+01    7.364964e+03
  4.356311e+01    7.384542e+03
  4.358600e+01    7.434458e+03
  4.360888e+01    7.524197e+03
  4.363177e+01    7.677464e+03
  4.365465e+01    7.923029e+03
  4.367754e+01    8.325318e+03
  4.370042e+01    9.017690e+03
  4.372331e+01    1.027236e+04
  4.374619e+01    1.245056e+04
  4.376908e+01    1.572916e+04
  4.379196e+01    1.962822e+04
  4.381485e+01    2.303320e+04
  4.383773e+01    2.461800e+04
  4.386062e+01    2.363521e+04
  4.388351e+01    2.085354e+04
  4.390639e+01    1.724386e+04
  4.392928e+01    1.401198e+04
  4.395216e+01    1.164403e+04
  4.397505e+01    1.008579e+04
  4.399793e+01    9.100878e+03
  4.402082e+01    8.473016e+03
  4.404370e+01    8.094035e+03
  4.406659e+01    7.855750e+03
  4.408947e+01    7.711669e+03
  4.411236e+01    7.640537e+03
  4.413524e+01    7.610992e+03
  4.415813e+01    7.628686e+03
  4.418102e+01    7.695130e+03
  4.420390e+01    7.827530e+03
  4.422679e+01    8.039424e+03
  4.424967e+01    8.394459e+03
  4.427256e+01    9.037577e+03
  4.429544e+01    1.023843e+04
  4.431833e+01    1.249794e+04
  4.434121e+01    1.651298e+04
  4.436410e+01    2.232813e+04
  4.438698e+01    2.803482e+04
  4.440987e+01    3.072481e+04
  4.443275e+01    2.940605e+04
  4.445564e+01    2.505799e+04
  4.447853e+01    1.943508e+04
  4.450141e+01    1.448507e+04
  4.452430e+01    1.126428e+04
  4.454718e+01    9.470389e+03
  4.457007e+01    8.498812e+03
  4.459295e+01    7.973056e+03
  4.461584e+01    7.653715e+03
  4.463872e+01    7.424791e+03
  4.466161e+01    7.266380e+03
  4.468449e+01    7.152899e+03
  4.470738e+01    7.069329e+03
  4.473026e+01    7.005880e+03
  4.475315e+01    6.963787e+03
  4.477603e+01    6.926427e+03
  4.479892e+01    6.893246e+03
  4.482181e+01    6.870202e+03
  4.484469e+01    6.848109e+03
  4.486758e+01    6.818267e+03
  4.489046e+01    6.802928e+03
  4.491335e+01    6.784860e+03
  4.493623e+01    6.786510e+03
  4.495912e+01    6.777831e+03
  4.498200e+01    6.771932e+03
  4.500489e+01    6.758444e+03
  4.502777e+01    6.754738e+03
  4.505066e+01    6.750796e+03
  4.507354e+01    6.752252e+03
  4.509643e+01    6.756613e+03
  4.511932e+01    6.760253e+03
  4.514220e+01    6.772427e+03
  4.516509e+01    6.781670e+03
  4.518797e+01    6.804035e+03
  4.521086e+01    6.824646e+03
  4.523374e+01    6.844533e+03
  4.525663e+01    6.892097e+03
  4.527951e+01    6.961778e+03
  4.530240e+01    7.074449e+03
  4.532528e+01    7.286565e+03
  4.534817e+01    7.683676e+03
  4.537105e+01    8.419556e+03
  4.539394e+01    9.649650e+03
  4.541683e+01    1.132834e+04
  4.543971e+01    1.284170e+04
  4.546260e+01    1.338945e+04
  4.548548e+01    1.283731e+04
  4.550837e+01    1.151610e+04
  4.553125e+01    9.915809e+03
  4.555414e+01    8.597649e+03
  4.557702e+01    7.768962e+03
  4.559991e+01    7.321068e+03
  4.562279e+01    7.064482e+03
  4.564568e+01    6.924829e+03
  4.566856e+01    6.838614e+03
  4.569145e+01    6.782928e+03
  4.571433e+01    6.739826e+03
  4.573722e+01    6.697302e+03
  4.576011e+01    6.679565e+03
  4.578299e+01    6.674997e+03
  4.580588e+01    6.659425e+03
  4.582876e+01    6.636404e+03
  4.585165e+01    6.636662e+03
  4.587453e+01    6.632917e+03
  4.589742e+01    6.623805e+03
  4.592030e+01    6.608157e+03
  4.594319e+01    6.608640e+03
  4.596607e+01    6.604453e+03
  4.598896e+01    6.584684e+03
  4.601184e+01    6.570038e+03
  4.603473e+01    6.559715e+03
  4.605762e+01    6.567054e+03
  4.608050e+01    6.548395e+03
  4.610339e+01    6.549132e+03
  4.612627e+01    6.551578e+03
  4.614916e+01    6.536082e+03
  4.617204e+01    6.539391e+03
  4.619493e+01    6.545862e+03
  4.621781e+01    6.557641e+03
  4.624070e+01    6.569151e+03
  4.626358e+01    6.587581e+03
  4.628647e+01    6.587948e+03
  4.630935e+01    6.613028e+03
  4.633224e+01    6.668313e+03
  4.635513e+01    6.745577e+03
  4.637801e+01    6.875082e+03
  4.640090e+01    7.102232e+03
  4.642378e+01    7.508066e+03
  4.644667e+01    8.041698e+03
  4.646955e+01    8.493731e+03
  4.649244e+01    8.656484e+03
  4.651532e+01    8.482994e+03
  4.653821e+01    8.076540e+03
  4.656109e+01    7.597941e+03
  4.658398e+01    7.216761e+03
  4.660686e+01    6.977177e+03
  4.662975e+01    6.842213e+03
  4.665263e+01    6.771896e+03
  4.667552e+01    6.731261e+03
  4.669841e+01    6.708409e+03
  4.672129e+01    6.689550e+03
  4.674418e+01    6.670370e+03
  4.676706e+01    6.668474e+03
  4.678995e+01    6.670340e+03
  4.681283e+01    6.658464e+03
  4.683572e+01    6.654330e+03
  4.685860e+01    6.648231e+03
  4.688149e+01    6.656406e+03
  4.690437e+01    6.650055e+03
  4.692726e+01    6.659512e+03
  4.695014e+01    6.669871e+03
  4.697303e+01    6.670496e+03
  4.699592e+01    6.677252e+03
  4.701880e+01    6.678147e+03
  4.704169e+01    6.708687e+03
  4.706457e+01    6.730228e+03
  4.708746e+01    6.725363e+03
  4.711034e+01    6.739536e+03
  4.713323e+01    6.774585e+03
  4.715611e+01    6.764300e+03
  4.717900e+01    6.775151e+03
  4.720188e+01    6.781812e+03
  4.722477e+01    6.809965e+03
  4.724765e+01    6.841452e+03
  4.727054e+01    6.862126e+03
  4.729343e+01    6.907079e+03
  4.731631e+01    6.940208e+03
  4.733920e+01    6.972543e+03
  4.736208e+01    7.059814e+03
  4.738497e+01    7.181696e+03
  4.740785e+01    7.371162e+03
  4.743074e+01    7.668040e+03
  4.745362e+01    8.045337e+03
  4.747651e+01    8.431476e+03
  4.749939e+01    8.630561e+03
  4.752228e+01    8.559521e+03
  4.754516e+01    8.342410e+03
  4.756805e+01    7.992305e+03
  4.759094e+01    7.827715e+03
  4.761382e+01    7.752087e+03
  4.763671e+01    7.692934e+03
  4.765959e+01    7.627820e+03
  4.768248e+01    7.616024e+03
  4.770536e+01    7.562159e+03
  4.772825e+01    7.420006e+03
  4.775113e+01    7.478609e+03
  4.777402e+01    7.335017e+03
  4.779690e+01    7.307490e+03
  4.781979e+01    7.071050e+03
  4.784267e+01    6.829869e+03
  4.786556e+01    5.850816e+03
  4.788844e+01    2.839055e+03