File: Output/ROCK_XRD/WAM39B_integrated/rampe2/wam39b_rampe_2_xrd_000011_integrated.dat
# == pyFAI calibration ==
# Distance Sample to Detector: 0.261615 m
# PONI: 2.023e-01, 2.348e-01 m
# Rotations: -0.026380 0.002005 0.000000 rad
#
# == Fit2d calibration ==
# Distance Sample-beamCenter: 261.707 mm
# Center: x=6119.331, y=5134.776 pix
# Tilt: 1.516 deg  TiltPlanRot: 4.347 deg
#
# Detector Rayonix SX165	 PixelSize= 3.950e-05, 3.950e-05 m
#    Detector has a mask: True
#    Detector has a dark current: False
#    detector has a flat field: False
#
# Wavelength: 1.12713e-10 m
# Mask applied: from detector
# Dark current applied: False
# Flat field applied: False
# Polarization factor: None
# Normalization factor: 1.0
# --> ROCK\\WAM39B_integrated\wam39b_rampe_2_xrd_000011_integrated.dat
#       2th_deg             I
  2.502596e+01    4.834939e+03
  2.504885e+01    1.268488e+04
  2.507173e+01    1.707091e+04
  2.509462e+01    1.813646e+04
  2.511750e+01    1.981756e+04
  2.514039e+01    2.051231e+04
  2.516327e+01    2.041849e+04
  2.518616e+01    2.022818e+04
  2.520905e+01    2.008182e+04
  2.523193e+01    1.984687e+04
  2.525482e+01    1.993215e+04
  2.527770e+01    2.029663e+04
  2.530059e+01    2.020055e+04
  2.532347e+01    1.999472e+04
  2.534636e+01    1.980533e+04
  2.536924e+01    1.969482e+04
  2.539213e+01    1.965384e+04
  2.541501e+01    1.963855e+04
  2.543790e+01    1.964263e+04
  2.546078e+01    1.967572e+04
  2.548367e+01    1.962779e+04
  2.550656e+01    1.945929e+04
  2.552944e+01    1.935847e+04
  2.555233e+01    1.958773e+04
  2.557521e+01    1.970602e+04
  2.559810e+01    1.968312e+04
  2.562098e+01    1.975128e+04
  2.564387e+01    1.985407e+04
  2.566675e+01    1.993959e+04
  2.568964e+01    1.992119e+04
  2.571252e+01    1.990730e+04
  2.573541e+01    1.995295e+04
  2.575829e+01    1.993467e+04
  2.578118e+01    1.984738e+04
  2.580407e+01    1.980517e+04
  2.582695e+01    1.979291e+04
  2.584984e+01    1.976103e+04
  2.587272e+01    1.972736e+04
  2.589561e+01    1.974180e+04
  2.591849e+01    1.965934e+04
  2.594138e+01    1.960404e+04
  2.596426e+01    1.961010e+04
  2.598715e+01    1.950296e+04
  2.601003e+01    1.948334e+04
  2.603292e+01    1.942780e+04
  2.605580e+01    1.939484e+04
  2.607869e+01    1.943336e+04
  2.610157e+01    1.949031e+04
  2.612446e+01    1.960095e+04
  2.614735e+01    1.977914e+04
  2.617023e+01    2.004513e+04
  2.619312e+01    2.048221e+04
  2.621600e+01    2.118446e+04
  2.623889e+01    2.217049e+04
  2.626177e+01    2.379464e+04
  2.628466e+01    2.633176e+04
  2.630754e+01    3.007346e+04
  2.633043e+01    3.494154e+04
  2.635331e+01    4.040484e+04
  2.637620e+01    4.599026e+04
  2.639908e+01    5.119923e+04
  2.642197e+01    5.473835e+04
  2.644486e+01    5.437707e+04
  2.646774e+01    4.945407e+04
  2.649063e+01    4.184774e+04
  2.651351e+01    3.449033e+04
  2.653640e+01    2.880772e+04
  2.655928e+01    2.499467e+04
  2.658217e+01    2.255117e+04
  2.660505e+01    2.101937e+04
  2.662794e+01    2.002980e+04
  2.665082e+01    1.932652e+04
  2.667371e+01    1.882996e+04
  2.669659e+01    1.846677e+04
  2.671948e+01    1.818986e+04
  2.674237e+01    1.797160e+04
  2.676525e+01    1.778998e+04
  2.678814e+01    1.763988e+04
  2.681102e+01    1.751990e+04
  2.683391e+01    1.739823e+04
  2.685679e+01    1.730948e+04
  2.687968e+01    1.725194e+04
  2.690256e+01    1.714262e+04
  2.692545e+01    1.708070e+04
  2.694833e+01    1.700295e+04
  2.697122e+01    1.691896e+04
  2.699410e+01    1.685928e+04
  2.701699e+01    1.683451e+04
  2.703988e+01    1.674632e+04
  2.706276e+01    1.669203e+04
  2.708565e+01    1.666302e+04
  2.710853e+01    1.661147e+04
  2.713142e+01    1.656144e+04
  2.715430e+01    1.651005e+04
  2.717719e+01    1.645907e+04
  2.720007e+01    1.639110e+04
  2.722296e+01    1.634055e+04
  2.724584e+01    1.627384e+04
  2.726873e+01    1.625970e+04
  2.729161e+01    1.621548e+04
  2.731450e+01    1.617074e+04
  2.733738e+01    1.610736e+04
  2.736027e+01    1.606691e+04
  2.738316e+01    1.603569e+04
  2.740604e+01    1.598709e+04
  2.742893e+01    1.596058e+04
  2.745181e+01    1.594852e+04
  2.747470e+01    1.591304e+04
  2.749758e+01    1.588243e+04
  2.752047e+01    1.586078e+04
  2.754335e+01    1.585312e+04
  2.756624e+01    1.584111e+04
  2.758912e+01    1.581662e+04
  2.761201e+01    1.578373e+04
  2.763489e+01    1.576368e+04
  2.765778e+01    1.576800e+04
  2.768067e+01    1.578043e+04
  2.770355e+01    1.579735e+04
  2.772644e+01    1.578998e+04
  2.774932e+01    1.579275e+04
  2.777221e+01    1.583554e+04
  2.779509e+01    1.589491e+04
  2.781798e+01    1.599814e+04
  2.784086e+01    1.612972e+04
  2.786375e+01    1.634981e+04
  2.788663e+01    1.669835e+04
  2.790952e+01    1.727197e+04
  2.793240e+01    1.819522e+04
  2.795529e+01    1.941762e+04
  2.797818e+01    2.057992e+04
  2.800106e+01    2.107089e+04
  2.802395e+01    2.059851e+04
  2.804683e+01    1.943163e+04
  2.806972e+01    1.813472e+04
  2.809260e+01    1.710570e+04
  2.811549e+01    1.640925e+04
  2.813837e+01    1.597347e+04
  2.816126e+01    1.568142e+04
  2.818414e+01    1.546830e+04
  2.820703e+01    1.530910e+04
  2.822991e+01    1.516721e+04
  2.825280e+01    1.504982e+04
  2.827568e+01    1.495284e+04
  2.829857e+01    1.485522e+04
  2.832146e+01    1.477092e+04
  2.834434e+01    1.468195e+04
  2.836723e+01    1.460126e+04
  2.839011e+01    1.452599e+04
  2.841300e+01    1.444782e+04
  2.843588e+01    1.438843e+04
  2.845877e+01    1.431610e+04
  2.848165e+01    1.424868e+04
  2.850454e+01    1.420298e+04
  2.852742e+01    1.416758e+04
  2.855031e+01    1.413009e+04
  2.857319e+01    1.406567e+04
  2.859608e+01    1.401390e+04
  2.861897e+01    1.395921e+04
  2.864185e+01    1.390165e+04
  2.866474e+01    1.385328e+04
  2.868762e+01    1.379979e+04
  2.871051e+01    1.376303e+04
  2.873339e+01    1.373125e+04
  2.875628e+01    1.369042e+04
  2.877916e+01    1.365847e+04
  2.880205e+01    1.362680e+04
  2.882493e+01    1.361720e+04
  2.884782e+01    1.360055e+04
  2.887070e+01    1.356786e+04
  2.889359e+01    1.353294e+04
  2.891648e+01    1.350860e+04
  2.893936e+01    1.348388e+04
  2.896225e+01    1.344902e+04
  2.898513e+01    1.340623e+04
  2.900802e+01    1.336130e+04
  2.903090e+01    1.330051e+04
  2.905379e+01    1.323825e+04
  2.907667e+01    1.318214e+04
  2.909956e+01    1.311044e+04
  2.912244e+01    1.304236e+04
  2.914533e+01    1.298483e+04
  2.916821e+01    1.292938e+04
  2.919110e+01    1.286910e+04
  2.921398e+01    1.280732e+04
  2.923687e+01    1.275297e+04
  2.925976e+01    1.270083e+04
  2.928264e+01    1.265062e+04
  2.930553e+01    1.260307e+04
  2.932841e+01    1.255398e+04
  2.935130e+01    1.250865e+04
  2.937418e+01    1.248863e+04
  2.939707e+01    1.249751e+04
  2.941995e+01    1.251744e+04
  2.944284e+01    1.261535e+04
  2.946572e+01    1.284175e+04
  2.948861e+01    1.318509e+04
  2.951149e+01    1.361994e+04
  2.953438e+01    1.399041e+04
  2.955727e+01    1.405782e+04
  2.958015e+01    1.375973e+04
  2.960304e+01    1.326469e+04
  2.962592e+01    1.276344e+04
  2.964881e+01    1.237342e+04
  2.967169e+01    1.211879e+04
  2.969458e+01    1.196649e+04
  2.971746e+01    1.186292e+04
  2.974035e+01    1.178316e+04
  2.976323e+01    1.171926e+04
  2.978612e+01    1.168268e+04
  2.980900e+01    1.164939e+04
  2.983189e+01    1.161160e+04
  2.985478e+01    1.157867e+04
  2.987766e+01    1.152932e+04
  2.990055e+01    1.150673e+04
  2.992343e+01    1.150000e+04
  2.994632e+01    1.147379e+04
  2.996920e+01    1.144891e+04
  2.999209e+01    1.144299e+04
  3.001497e+01    1.144423e+04
  3.003786e+01    1.143964e+04
  3.006074e+01    1.143356e+04
  3.008363e+01    1.142695e+04
  3.010651e+01    1.143313e+04
  3.012940e+01    1.145655e+04
  3.015228e+01    1.145668e+04
  3.017517e+01    1.145972e+04
  3.019806e+01    1.148065e+04
  3.022094e+01    1.148709e+04
  3.024383e+01    1.150982e+04
  3.026671e+01    1.155468e+04
  3.028960e+01    1.161088e+04
  3.031248e+01    1.168720e+04
  3.033537e+01    1.180541e+04
  3.035825e+01    1.196068e+04
  3.038114e+01    1.216450e+04
  3.040402e+01    1.246550e+04
  3.042691e+01    1.290228e+04
  3.044979e+01    1.356859e+04
  3.047268e+01    1.462955e+04
  3.049557e+01    1.635464e+04
  3.051845e+01    1.917447e+04
  3.054134e+01    2.377192e+04
  3.056422e+01    3.096452e+04
  3.058711e+01    4.081701e+04
  3.060999e+01    5.010639e+04
  3.063288e+01    5.469354e+04
  3.065576e+01    5.268041e+04
  3.067865e+01    4.529568e+04
  3.070153e+01    3.626077e+04
  3.072442e+01    2.824043e+04
  3.074730e+01    2.251714e+04
  3.077019e+01    1.878066e+04
  3.079308e+01    1.644026e+04
  3.081596e+01    1.498971e+04
  3.083885e+01    1.414327e+04
  3.086173e+01    1.375343e+04
  3.088462e+01    1.379931e+04
  3.090750e+01    1.438668e+04
  3.093039e+01    1.580637e+04
  3.095327e+01    1.846470e+04
  3.097616e+01    2.253025e+04
  3.099904e+01    2.709132e+04
  3.102193e+01    3.005491e+04
  3.104481e+01    2.967907e+04
  3.106770e+01    2.620366e+04
  3.109059e+01    2.148171e+04
  3.111347e+01    1.740506e+04
  3.113636e+01    1.465843e+04
  3.115924e+01    1.303610e+04
  3.118213e+01    1.211433e+04
  3.120501e+01    1.156834e+04
  3.122790e+01    1.122171e+04
  3.125078e+01    1.099239e+04
  3.127367e+01    1.082735e+04
  3.129655e+01    1.070118e+04
  3.131944e+01    1.060944e+04
  3.134232e+01    1.053545e+04
  3.136521e+01    1.047745e+04
  3.138809e+01    1.042415e+04
  3.141098e+01    1.037882e+04
  3.143387e+01    1.034142e+04
  3.145675e+01    1.029554e+04
  3.147964e+01    1.025925e+04
  3.150252e+01    1.022124e+04
  3.152541e+01    1.018738e+04
  3.154829e+01    1.014798e+04
  3.157118e+01    1.011603e+04
  3.159406e+01    1.009510e+04
  3.161695e+01    1.007897e+04
  3.163983e+01    1.005311e+04
  3.166272e+01    1.003333e+04
  3.168560e+01    1.001168e+04
  3.170849e+01    9.992144e+03
  3.173138e+01    9.969510e+03
  3.175426e+01    9.945839e+03
  3.177715e+01    9.929426e+03
  3.180003e+01    9.911159e+03
  3.182292e+01    9.888250e+03
  3.184580e+01    9.871103e+03
  3.186869e+01    9.861517e+03
  3.189157e+01    9.848374e+03
  3.191446e+01    9.832309e+03
  3.193734e+01    9.818370e+03
  3.196023e+01    9.806315e+03
  3.198311e+01    9.786162e+03
  3.200600e+01    9.769048e+03
  3.202889e+01    9.756559e+03
  3.205177e+01    9.742837e+03
  3.207466e+01    9.727091e+03
  3.209754e+01    9.702757e+03
  3.212043e+01    9.691171e+03
  3.214331e+01    9.678426e+03
  3.216620e+01    9.673428e+03
  3.218908e+01    9.658235e+03
  3.221197e+01    9.645692e+03
  3.223485e+01    9.648528e+03
  3.225774e+01    9.661505e+03
  3.228062e+01    9.679970e+03
  3.230351e+01    9.710646e+03
  3.232639e+01    9.781024e+03
  3.234928e+01    9.928215e+03
  3.237217e+01    1.019694e+04
  3.239505e+01    1.058557e+04
  3.241794e+01    1.101413e+04
  3.244082e+01    1.128047e+04
  3.246371e+01    1.123431e+04
  3.248659e+01    1.090776e+04
  3.250948e+01    1.046793e+04
  3.253236e+01    1.009734e+04
  3.255525e+01    9.848530e+03
  3.257813e+01    9.709087e+03
  3.260102e+01    9.631712e+03
  3.262390e+01    9.590202e+03
  3.264679e+01    9.557467e+03
  3.266968e+01    9.530769e+03
  3.269256e+01    9.508621e+03
  3.271545e+01    9.488122e+03
  3.273833e+01    9.467816e+03
  3.276122e+01    9.443175e+03
  3.278410e+01    9.416554e+03
  3.280699e+01    9.390462e+03
  3.282987e+01    9.358651e+03
  3.285276e+01    9.321268e+03
  3.287564e+01    9.284124e+03
  3.289853e+01    9.252069e+03
  3.292141e+01    9.220149e+03
  3.294430e+01    9.195389e+03
  3.296719e+01    9.163096e+03
  3.299007e+01    9.128974e+03
  3.301296e+01    9.106119e+03
  3.303584e+01    9.097870e+03
  3.305873e+01    9.084707e+03
  3.308161e+01    9.059267e+03
  3.310450e+01    9.046998e+03
  3.312738e+01    9.036990e+03
  3.315027e+01    9.026190e+03
  3.317315e+01    9.008771e+03
  3.319604e+01    8.996574e+03
  3.321892e+01    8.989429e+03
  3.324181e+01    8.982434e+03
  3.326469e+01    8.976336e+03
  3.328758e+01    8.976016e+03
  3.331047e+01    8.972358e+03
  3.333335e+01    8.956327e+03
  3.335624e+01    8.944731e+03
  3.337912e+01    8.940642e+03
  3.340201e+01    8.937508e+03
  3.342489e+01    8.940995e+03
  3.344778e+01    8.937312e+03
  3.347066e+01    8.934297e+03
  3.349355e+01    8.950557e+03
  3.351643e+01    8.970393e+03
  3.353932e+01    8.993688e+03
  3.356220e+01    9.043251e+03
  3.358509e+01    9.104134e+03
  3.360798e+01    9.194824e+03
  3.363086e+01    9.343355e+03
  3.365375e+01    9.609828e+03
  3.367663e+01    1.006919e+04
  3.369952e+01    1.092481e+04
  3.372240e+01    1.248770e+04
  3.374529e+01    1.506783e+04
  3.376817e+01    1.853550e+04
  3.379106e+01    2.170534e+04
  3.381394e+01    2.292373e+04
  3.383683e+01    2.151162e+04
  3.385971e+01    1.838738e+04
  3.388260e+01    1.502444e+04
  3.390549e+01    1.245758e+04
  3.392837e+01    1.086733e+04
  3.395126e+01    9.960935e+03
  3.397414e+01    9.465342e+03
  3.399703e+01    9.170870e+03
  3.401991e+01    8.996005e+03
  3.404280e+01    8.879840e+03
  3.406568e+01    8.780209e+03
  3.408857e+01    8.710760e+03
  3.411145e+01    8.657849e+03
  3.413434e+01    8.612645e+03
  3.415722e+01    8.586927e+03
  3.418011e+01    8.561441e+03
  3.420300e+01    8.532251e+03
  3.422588e+01    8.510194e+03
  3.424877e+01    8.495019e+03
  3.427165e+01    8.480315e+03
  3.429454e+01    8.466082e+03
  3.431742e+01    8.453561e+03
  3.434031e+01    8.447733e+03
  3.436319e+01    8.438011e+03
  3.438608e+01    8.420024e+03
  3.440896e+01    8.418466e+03
  3.443185e+01    8.413777e+03
  3.445473e+01    8.401458e+03
  3.447762e+01    8.390632e+03
  3.450050e+01    8.383780e+03
  3.452339e+01    8.369666e+03
  3.454628e+01    8.367326e+03
  3.456916e+01    8.357501e+03
  3.459205e+01    8.348271e+03
  3.461493e+01    8.339182e+03
  3.463782e+01    8.330587e+03
  3.466070e+01    8.323035e+03
  3.468359e+01    8.318227e+03
  3.470647e+01    8.312985e+03
  3.472936e+01    8.299063e+03
  3.475224e+01    8.284257e+03
  3.477513e+01    8.272672e+03
  3.479801e+01    8.258325e+03
  3.482090e+01    8.245674e+03
  3.484379e+01    8.223152e+03
  3.486667e+01    8.211182e+03
  3.488956e+01    8.195072e+03
  3.491244e+01    8.175017e+03
  3.493533e+01    8.155885e+03
  3.495821e+01    8.137188e+03
  3.498110e+01    8.120450e+03
  3.500398e+01    8.098128e+03
  3.502687e+01    8.078888e+03
  3.504975e+01    8.065017e+03
  3.507264e+01    8.044721e+03
  3.509552e+01    8.019994e+03
  3.511841e+01    8.007722e+03
  3.514130e+01    7.994406e+03
  3.516418e+01    7.988306e+03
  3.518707e+01    7.970111e+03
  3.520995e+01    7.961953e+03
  3.523284e+01    7.961047e+03
  3.525572e+01    7.951323e+03
  3.527861e+01    7.935026e+03
  3.530149e+01    7.920915e+03
  3.532438e+01    7.905232e+03
  3.534726e+01    7.883871e+03
  3.537015e+01    7.868283e+03
  3.539303e+01    7.851624e+03
  3.541592e+01    7.845882e+03
  3.543880e+01    7.831558e+03
  3.546169e+01    7.814869e+03
  3.548458e+01    7.808892e+03
  3.550746e+01    7.802273e+03
  3.553035e+01    7.788757e+03
  3.555323e+01    7.775998e+03
  3.557612e+01    7.766614e+03
  3.559900e+01    7.760650e+03
  3.562189e+01    7.752056e+03
  3.564477e+01    7.740085e+03
  3.566766e+01    7.736299e+03
  3.569054e+01    7.728384e+03
  3.571343e+01    7.725059e+03
  3.573631e+01    7.717002e+03
  3.575920e+01    7.707018e+03
  3.578209e+01    7.707495e+03
  3.580497e+01    7.707281e+03
  3.582786e+01    7.700616e+03
  3.585074e+01    7.694168e+03
  3.587363e+01    7.697341e+03
  3.589651e+01    7.701789e+03
  3.591940e+01    7.705708e+03
  3.594228e+01    7.707399e+03
  3.596517e+01    7.712912e+03
  3.598805e+01    7.724452e+03
  3.601094e+01    7.730683e+03
  3.603382e+01    7.734178e+03
  3.605671e+01    7.735094e+03
  3.607960e+01    7.746340e+03
  3.610248e+01    7.760426e+03
  3.612537e+01    7.773017e+03
  3.614825e+01    7.800811e+03
  3.617114e+01    7.834381e+03
  3.619402e+01    7.874949e+03
  3.621691e+01    7.931686e+03
  3.623979e+01    8.020912e+03
  3.626268e+01    8.183935e+03
  3.628556e+01    8.481711e+03
  3.630845e+01    9.040000e+03
  3.633133e+01    9.996114e+03
  3.635422e+01    1.134943e+04
  3.637710e+01    1.268444e+04
  3.639999e+01    1.333470e+04
  3.642288e+01    1.297049e+04
  3.644576e+01    1.183316e+04
  3.646865e+01    1.049726e+04
  3.649153e+01    9.424867e+03
  3.651442e+01    8.723444e+03
  3.653730e+01    8.344678e+03
  3.656019e+01    8.141913e+03
  3.658307e+01    8.030866e+03
  3.660596e+01    7.961423e+03
  3.662884e+01    7.915402e+03
  3.665173e+01    7.885361e+03
  3.667461e+01    7.864737e+03
  3.669750e+01    7.859993e+03
  3.672039e+01    7.849834e+03
  3.674327e+01    7.850354e+03
  3.676616e+01    7.847202e+03
  3.678904e+01    7.845060e+03
  3.681193e+01    7.854280e+03
  3.683481e+01    7.858952e+03
  3.685770e+01    7.857967e+03
  3.688058e+01    7.878254e+03
  3.690347e+01    7.885894e+03
  3.692635e+01    7.890481e+03
  3.694924e+01    7.891657e+03
  3.697212e+01    7.903419e+03
  3.699501e+01    7.928501e+03
  3.701790e+01    7.942446e+03
  3.704078e+01    7.959374e+03
  3.706367e+01    7.971271e+03
  3.708655e+01    7.993108e+03
  3.710944e+01    8.030596e+03
  3.713232e+01    8.050530e+03
  3.715521e+01    8.082601e+03
  3.717809e+01    8.123554e+03
  3.720098e+01    8.170686e+03
  3.722386e+01    8.223932e+03
  3.724675e+01    8.277452e+03
  3.726963e+01    8.343241e+03
  3.729252e+01    8.429352e+03
  3.731541e+01    8.529438e+03
  3.733829e+01    8.656124e+03
  3.736118e+01    8.827590e+03
  3.738406e+01    9.051857e+03
  3.740695e+01    9.358513e+03
  3.742983e+01    9.790564e+03
  3.745272e+01    1.044472e+04
  3.747560e+01    1.152055e+04
  3.749849e+01    1.342636e+04
  3.752137e+01    1.697281e+04
  3.754426e+01    2.363092e+04
  3.756714e+01    3.518156e+04
  3.759003e+01    5.156573e+04
  3.761291e+01    6.760636e+04
  3.763580e+01    7.527910e+04
  3.765869e+01    7.091825e+04
  3.768157e+01    5.748288e+04
  3.770446e+01    4.128455e+04
  3.772734e+01    2.801052e+04
  3.775023e+01    1.955794e+04
  3.777311e+01    1.489223e+04
  3.779600e+01    1.241639e+04
  3.781888e+01    1.102463e+04
  3.784177e+01    1.019744e+04
  3.786465e+01    9.657841e+03
  3.788754e+01    9.286063e+03
  3.791042e+01    9.024014e+03
  3.793331e+01    8.840650e+03
  3.795620e+01    8.687494e+03
  3.797908e+01    8.557352e+03
  3.800197e+01    8.465656e+03
  3.802485e+01    8.384429e+03
  3.804774e+01    8.310420e+03
  3.807062e+01    8.266608e+03
  3.809351e+01    8.222932e+03
  3.811639e+01    8.186607e+03
  3.813928e+01    8.150171e+03
  3.816216e+01    8.121471e+03
  3.818505e+01    8.102380e+03
  3.820793e+01    8.068234e+03
  3.823082e+01    8.043660e+03
  3.825371e+01    8.031411e+03
  3.827659e+01    8.033688e+03
  3.829948e+01    8.026871e+03
  3.832236e+01    8.004540e+03
  3.834525e+01    7.988593e+03
  3.836813e+01    7.979029e+03
  3.839102e+01    7.972688e+03
  3.841390e+01    7.968891e+03
  3.843679e+01    7.965122e+03
  3.845967e+01    7.967318e+03
  3.848256e+01    7.968940e+03
  3.850544e+01    7.978332e+03
  3.852833e+01    7.982486e+03
  3.855121e+01    7.980816e+03
  3.857410e+01    7.982491e+03
  3.859699e+01    7.991158e+03
  3.861987e+01    8.007827e+03
  3.864276e+01    8.024655e+03
  3.866564e+01    8.052062e+03
  3.868853e+01    8.104288e+03
  3.871141e+01    8.196013e+03
  3.873430e+01    8.378315e+03
  3.875718e+01    8.712783e+03
  3.878007e+01    9.254062e+03
  3.880295e+01    9.898066e+03
  3.882584e+01    1.038387e+04
  3.884872e+01    1.044500e+04
  3.887161e+01    1.008835e+04
  3.889450e+01    9.498979e+03
  3.891738e+01    8.905401e+03
  3.894027e+01    8.485389e+03
  3.896315e+01    8.234223e+03
  3.898604e+01    8.098640e+03
  3.900892e+01    8.026658e+03
  3.903181e+01    7.984838e+03
  3.905469e+01    7.949332e+03
  3.907758e+01    7.918706e+03
  3.910046e+01    7.903210e+03
  3.912335e+01    7.892314e+03
  3.914623e+01    7.875288e+03
  3.916912e+01    7.867798e+03
  3.919201e+01    7.873686e+03
  3.921489e+01    7.853016e+03
  3.923778e+01    7.840443e+03
  3.926066e+01    7.836316e+03
  3.928355e+01    7.824640e+03
  3.930643e+01    7.812576e+03
  3.932932e+01    7.804675e+03
  3.935220e+01    7.799494e+03
  3.937509e+01    7.806931e+03
  3.939797e+01    7.804948e+03
  3.942086e+01    7.798633e+03
  3.944374e+01    7.786012e+03
  3.946663e+01    7.782364e+03
  3.948951e+01    7.766896e+03
  3.951240e+01    7.751050e+03
  3.953529e+01    7.739621e+03
  3.955817e+01    7.736446e+03
  3.958106e+01    7.724234e+03
  3.960394e+01    7.710877e+03
  3.962683e+01    7.696872e+03
  3.964971e+01    7.685419e+03
  3.967260e+01    7.677595e+03
  3.969548e+01    7.673926e+03
  3.971837e+01    7.667324e+03
  3.974125e+01    7.658163e+03
  3.976414e+01    7.650210e+03
  3.978702e+01    7.650364e+03
  3.980991e+01    7.642367e+03
  3.983280e+01    7.645613e+03
  3.985568e+01    7.668707e+03
  3.987857e+01    7.698029e+03
  3.990145e+01    7.743728e+03
  3.992434e+01    7.809846e+03
  3.994722e+01    7.940733e+03
  3.997011e+01    8.103333e+03
  3.999299e+01    8.225087e+03
  4.001588e+01    8.254541e+03
  4.003876e+01    8.167315e+03
  4.006165e+01    8.023174e+03
  4.008453e+01    7.871099e+03
  4.010742e+01    7.751666e+03
  4.013031e+01    7.678184e+03
  4.015319e+01    7.632393e+03
  4.017608e+01    7.607076e+03
  4.019896e+01    7.589591e+03
  4.022185e+01    7.576388e+03
  4.024473e+01    7.571766e+03
  4.026762e+01    7.562518e+03
  4.029050e+01    7.548367e+03
  4.031339e+01    7.537504e+03
  4.033627e+01    7.534056e+03
  4.035916e+01    7.531434e+03
  4.038204e+01    7.528047e+03
  4.040493e+01    7.526725e+03
  4.042782e+01    7.520787e+03
  4.045070e+01    7.517664e+03
  4.047359e+01    7.513268e+03
  4.049647e+01    7.506201e+03
  4.051936e+01    7.500789e+03
  4.054224e+01    7.498604e+03
  4.056513e+01    7.496717e+03
  4.058801e+01    7.498492e+03
  4.061090e+01    7.492147e+03
  4.063378e+01    7.497165e+03
  4.065667e+01    7.494949e+03
  4.067955e+01    7.487617e+03
  4.070244e+01    7.486147e+03
  4.072532e+01    7.491931e+03
  4.074821e+01    7.498371e+03
  4.077110e+01    7.506426e+03
  4.079398e+01    7.518298e+03
  4.081687e+01    7.524093e+03
  4.083975e+01    7.540159e+03
  4.086264e+01    7.551971e+03
  4.088552e+01    7.570091e+03
  4.090841e+01    7.597248e+03
  4.093129e+01    7.626833e+03
  4.095418e+01    7.687882e+03
  4.097706e+01    7.774065e+03
  4.099995e+01    7.910968e+03
  4.102283e+01    8.183299e+03
  4.104572e+01    8.693688e+03
  4.106861e+01    9.625128e+03
  4.109149e+01    1.113405e+04
  4.111438e+01    1.299802e+04
  4.113726e+01    1.437974e+04
  4.116015e+01    1.459835e+04
  4.118303e+01    1.364887e+04
  4.120592e+01    1.202117e+04
  4.122880e+01    1.037546e+04
  4.125169e+01    9.172731e+03
  4.127457e+01    8.466380e+03
  4.129746e+01    8.088499e+03
  4.132034e+01    7.874115e+03
  4.134323e+01    7.757940e+03
  4.136612e+01    7.690891e+03
  4.138900e+01    7.644229e+03
  4.141189e+01    7.601165e+03
  4.143477e+01    7.573568e+03
  4.145766e+01    7.548786e+03
  4.148054e+01    7.527268e+03
  4.150343e+01    7.516337e+03
  4.152631e+01    7.505415e+03
  4.154920e+01    7.494584e+03
  4.157208e+01    7.476747e+03
  4.159497e+01    7.474415e+03
  4.161785e+01    7.479614e+03
  4.164074e+01    7.475170e+03
  4.166362e+01    7.467941e+03
  4.168651e+01    7.457744e+03
  4.170940e+01    7.445743e+03
  4.173228e+01    7.437539e+03
  4.175517e+01    7.430115e+03
  4.177805e+01    7.423915e+03
  4.180094e+01    7.416077e+03
  4.182382e+01    7.409725e+03
  4.184671e+01    7.406447e+03
  4.186959e+01    7.409182e+03
  4.189248e+01    7.409800e+03
  4.191536e+01    7.411883e+03
  4.193825e+01    7.409564e+03
  4.196113e+01    7.416331e+03
  4.198402e+01    7.422428e+03
  4.200691e+01    7.424716e+03
  4.202979e+01    7.426544e+03
  4.205268e+01    7.434171e+03
  4.207556e+01    7.448219e+03
  4.209845e+01    7.456639e+03
  4.212133e+01    7.489634e+03
  4.214422e+01    7.550037e+03
  4.216710e+01    7.675662e+03
  4.218999e+01    7.903472e+03
  4.221287e+01    8.258024e+03
  4.223576e+01    8.643312e+03
  4.225864e+01    8.883579e+03
  4.228153e+01    8.850717e+03
  4.230442e+01    8.587228e+03
  4.232730e+01    8.224517e+03
  4.235019e+01    7.878698e+03
  4.237307e+01    7.640955e+03
  4.239596e+01    7.499774e+03
  4.241884e+01    7.431822e+03
  4.244173e+01    7.390792e+03
  4.246461e+01    7.368296e+03
  4.248750e+01    7.349845e+03
  4.251038e+01    7.341991e+03
  4.253327e+01    7.338614e+03
  4.255615e+01    7.324313e+03
  4.257904e+01    7.311745e+03
  4.260192e+01    7.313171e+03
  4.262481e+01    7.303675e+03
  4.264770e+01    7.293498e+03
  4.267058e+01    7.294938e+03
  4.269347e+01    7.290178e+03
  4.271635e+01    7.286817e+03
  4.273924e+01    7.289324e+03
  4.276212e+01    7.290510e+03
  4.278501e+01    7.289361e+03
  4.280789e+01    7.288868e+03
  4.283078e+01    7.286067e+03
  4.285366e+01    7.287674e+03
  4.287655e+01    7.285950e+03
  4.289943e+01    7.290867e+03
  4.292232e+01    7.301053e+03
  4.294521e+01    7.314692e+03
  4.296809e+01    7.315483e+03
  4.299098e+01    7.324110e+03
  4.301386e+01    7.333282e+03
  4.303675e+01    7.345598e+03
  4.305963e+01    7.363082e+03
  4.308252e+01    7.382976e+03
  4.310540e+01    7.410524e+03
  4.312829e+01    7.436847e+03
  4.315117e+01    7.481123e+03
  4.317406e+01    7.534944e+03
  4.319694e+01    7.637224e+03
  4.321983e+01    7.802352e+03
  4.324272e+01    8.123815e+03
  4.326560e+01    8.722824e+03
  4.328849e+01    9.763695e+03
  4.331137e+01    1.127297e+04
  4.333426e+01    1.271062e+04
  4.335714e+01    1.338444e+04
  4.338003e+01    1.302164e+04
  4.340291e+01    1.190709e+04
  4.342580e+01    1.049774e+04
  4.344868e+01    9.285111e+03
  4.347157e+01    8.512114e+03
  4.349445e+01    8.111533e+03
  4.351734e+01    7.922318e+03
  4.354022e+01    7.834603e+03
  4.356311e+01    7.823904e+03
  4.358600e+01    7.845773e+03
  4.360888e+01    7.908535e+03
  4.363177e+01    8.036879e+03
  4.365465e+01    8.225386e+03
  4.367754e+01    8.549428e+03
  4.370042e+01    9.086852e+03
  4.372331e+01    1.003150e+04
  4.374619e+01    1.176582e+04
  4.376908e+01    1.459766e+04
  4.379196e+01    1.852895e+04
  4.381485e+01    2.274374e+04
  4.383773e+01    2.567439e+04
  4.386062e+01    2.595213e+04
  4.388351e+01    2.381757e+04
  4.390639e+01    2.027752e+04
  4.392928e+01    1.655672e+04
  4.395216e+01    1.356200e+04
  4.397505e+01    1.145948e+04
  4.399793e+01    1.010792e+04
  4.402082e+01    9.280246e+03
  4.404370e+01    8.776116e+03
  4.406659e+01    8.442961e+03
  4.408947e+01    8.239426e+03
  4.411236e+01    8.133363e+03
  4.413524e+01    8.078671e+03
  4.415813e+01    8.054830e+03
  4.418102e+01    8.093446e+03
  4.420390e+01    8.183184e+03
  4.422679e+01    8.326594e+03
  4.424967e+01    8.600300e+03
  4.427256e+01    9.059735e+03
  4.429544e+01    9.878705e+03
  4.431833e+01    1.139859e+04
  4.434121e+01    1.427822e+04
  4.436410e+01    1.919421e+04
  4.438698e+01    2.562097e+04
  4.440987e+01    3.098334e+04
  4.443275e+01    3.252237e+04
  4.445564e+01    2.996836e+04
  4.447853e+01    2.472187e+04
  4.450141e+01    1.876436e+04
  4.452430e+01    1.407482e+04
  4.454718e+01    1.119778e+04
  4.457007e+01    9.638705e+03
  4.459295e+01    8.807550e+03
  4.461584e+01    8.327576e+03
  4.463872e+01    8.018643e+03
  4.466161e+01    7.812150e+03
  4.468449e+01    7.657650e+03
  4.470738e+01    7.555529e+03
  4.473026e+01    7.481525e+03
  4.475315e+01    7.434526e+03
  4.477603e+01    7.380925e+03
  4.479892e+01    7.343154e+03
  4.482181e+01    7.311714e+03
  4.484469e+01    7.280171e+03
  4.486758e+01    7.250893e+03
  4.489046e+01    7.223774e+03
  4.491335e+01    7.207941e+03
  4.493623e+01    7.209988e+03
  4.495912e+01    7.196304e+03
  4.498200e+01    7.191799e+03
  4.500489e+01    7.173557e+03
  4.502777e+01    7.171333e+03
  4.505066e+01    7.167266e+03
  4.507354e+01    7.164806e+03
  4.509643e+01    7.161522e+03
  4.511932e+01    7.168563e+03
  4.514220e+01    7.182275e+03
  4.516509e+01    7.181736e+03
  4.518797e+01    7.197093e+03
  4.521086e+01    7.211632e+03
  4.523374e+01    7.218063e+03
  4.525663e+01    7.254104e+03
  4.527951e+01    7.318511e+03
  4.530240e+01    7.412284e+03
  4.532528e+01    7.554180e+03
  4.534817e+01    7.818584e+03
  4.537105e+01    8.320183e+03
  4.539394e+01    9.213217e+03
  4.541683e+01    1.068494e+04
  4.543971e+01    1.252009e+04
  4.546260e+01    1.388713e+04
  4.548548e+01    1.411511e+04
  4.550837e+01    1.325540e+04
  4.553125e+01    1.170183e+04
  4.555414e+01    1.005130e+04
  4.557702e+01    8.801649e+03
  4.559991e+01    8.057305e+03
  4.562279e+01    7.645923e+03
  4.564568e+01    7.440991e+03
  4.566856e+01    7.313312e+03
  4.569145e+01    7.232331e+03
  4.571433e+01    7.177633e+03
  4.573722e+01    7.130926e+03
  4.576011e+01    7.101428e+03
  4.578299e+01    7.080373e+03
  4.580588e+01    7.066930e+03
  4.582876e+01    7.036147e+03
  4.585165e+01    7.033458e+03
  4.587453e+01    7.030095e+03
  4.589742e+01    7.016864e+03
  4.592030e+01    6.999903e+03
  4.594319e+01    6.997258e+03
  4.596607e+01    6.989462e+03
  4.598896e+01    6.990938e+03
  4.601184e+01    6.975997e+03
  4.603473e+01    6.959843e+03
  4.605762e+01    6.968456e+03
  4.608050e+01    6.947841e+03
  4.610339e+01    6.937007e+03
  4.612627e+01    6.949587e+03
  4.614916e+01    6.936618e+03
  4.617204e+01    6.937086e+03
  4.619493e+01    6.944300e+03
  4.621781e+01    6.949357e+03
  4.624070e+01    6.948091e+03
  4.626358e+01    6.966604e+03
  4.628647e+01    6.975718e+03
  4.630935e+01    6.991540e+03
  4.633224e+01    7.031924e+03
  4.635513e+01    7.081476e+03
  4.637801e+01    7.175721e+03
  4.640090e+01    7.339368e+03
  4.642378e+01    7.628356e+03
  4.644667e+01    8.103809e+03
  4.646955e+01    8.669926e+03
  4.649244e+01    9.105614e+03
  4.651532e+01    9.167112e+03
  4.653821e+01    8.899215e+03
  4.656109e+01    8.411115e+03
  4.658398e+01    7.917989e+03
  4.660686e+01    7.552399e+03
  4.662975e+01    7.325035e+03
  4.665263e+01    7.207501e+03
  4.667552e+01    7.153340e+03
  4.669841e+01    7.116525e+03
  4.672129e+01    7.092717e+03
  4.674418e+01    7.071146e+03
  4.676706e+01    7.053554e+03
  4.678995e+01    7.061297e+03
  4.681283e+01    7.057505e+03
  4.683572e+01    7.057434e+03
  4.685860e+01    7.049414e+03
  4.688149e+01    7.049419e+03
  4.690437e+01    7.054424e+03
  4.692726e+01    7.073942e+03
  4.695014e+01    7.074808e+03
  4.697303e+01    7.070654e+03
  4.699592e+01    7.086957e+03
  4.701880e+01    7.098699e+03
  4.704169e+01    7.116555e+03
  4.706457e+01    7.126691e+03
  4.708746e+01    7.130086e+03
  4.711034e+01    7.158995e+03
  4.713323e+01    7.181999e+03
  4.715611e+01    7.178021e+03
  4.717900e+01    7.189505e+03
  4.720188e+01    7.210618e+03
  4.722477e+01    7.232511e+03
  4.724765e+01    7.259502e+03
  4.727054e+01    7.275110e+03
  4.729343e+01    7.308550e+03
  4.731631e+01    7.346996e+03
  4.733920e+01    7.386754e+03
  4.736208e+01    7.455041e+03
  4.738497e+01    7.541001e+03
  4.740785e+01    7.689427e+03
  4.743074e+01    7.912010e+03
  4.745362e+01    8.244810e+03
  4.747651e+01    8.712641e+03
  4.749939e+01    9.095362e+03
  4.752228e+01    9.217836e+03
  4.754516e+01    9.082194e+03
  4.756805e+01    8.733528e+03
  4.759094e+01    8.510875e+03
  4.761382e+01    8.351831e+03
  4.763671e+01    8.239272e+03
  4.765959e+01    8.127899e+03
  4.768248e+01    8.091212e+03
  4.770536e+01    8.037186e+03
  4.772825e+01    7.904469e+03
  4.775113e+01    7.950146e+03
  4.777402e+01    7.775151e+03
  4.779690e+01    7.776994e+03
  4.781979e+01    7.500360e+03
  4.784267e+01    7.225137e+03
  4.786556e+01    6.208502e+03
  4.788844e+01    3.007426e+03