File: Output/ROCK_XRD/WAM39B_integrated/no_holder_xrd_000001_integrated.dat
# == pyFAI calibration ==
# Distance Sample to Detector: 0.261615 m
# PONI: 2.023e-01, 2.348e-01 m
# Rotations: -0.026380 0.002005 0.000000 rad
#
# == Fit2d calibration ==
# Distance Sample-beamCenter: 261.707 mm
# Center: x=6119.331, y=5134.776 pix
# Tilt: 1.516 deg  TiltPlanRot: 4.347 deg
#
# Detector Rayonix SX165	 PixelSize= 3.950e-05, 3.950e-05 m
#    Detector has a mask: True
#    Detector has a dark current: False
#    detector has a flat field: False
#
# Wavelength: 1.12713e-10 m
# Mask applied: from detector
# Dark current applied: False
# Flat field applied: False
# Polarization factor: None
# Normalization factor: 1.0
# --> ROCK\\WAM39B_integrated\no_holder_xrd_000001_integrated.dat
#       2th_deg             I
  2.502596e+01    3.164010e+03
  2.504885e+01    8.336241e+03
  2.507173e+01    1.127680e+04
  2.509462e+01    1.204945e+04
  2.511750e+01    1.331553e+04
  2.514039e+01    1.400266e+04
  2.516327e+01    1.416401e+04
  2.518616e+01    1.422606e+04
  2.520905e+01    1.427789e+04
  2.523193e+01    1.418992e+04
  2.525482e+01    1.431614e+04
  2.527770e+01    1.470868e+04
  2.530059e+01    1.474892e+04
  2.532347e+01    1.468826e+04
  2.534636e+01    1.463982e+04
  2.536924e+01    1.462785e+04
  2.539213e+01    1.465953e+04
  2.541501e+01    1.468079e+04
  2.543790e+01    1.470016e+04
  2.546078e+01    1.475041e+04
  2.548367e+01    1.472236e+04
  2.550656e+01    1.458723e+04
  2.552944e+01    1.450979e+04
  2.555233e+01    1.467329e+04
  2.557521e+01    1.472354e+04
  2.559810e+01    1.468906e+04
  2.562098e+01    1.470760e+04
  2.564387e+01    1.474604e+04
  2.566675e+01    1.477147e+04
  2.568964e+01    1.472832e+04
  2.571252e+01    1.469608e+04
  2.573541e+01    1.471545e+04
  2.575829e+01    1.469625e+04
  2.578118e+01    1.462328e+04
  2.580407e+01    1.460320e+04
  2.582695e+01    1.460626e+04
  2.584984e+01    1.458690e+04
  2.587272e+01    1.457869e+04
  2.589561e+01    1.461495e+04
  2.591849e+01    1.458626e+04
  2.594138e+01    1.458309e+04
  2.596426e+01    1.461535e+04
  2.598715e+01    1.458452e+04
  2.601003e+01    1.461259e+04
  2.603292e+01    1.460342e+04
  2.605580e+01    1.459066e+04
  2.607869e+01    1.459297e+04
  2.610157e+01    1.458338e+04
  2.612446e+01    1.458844e+04
  2.614735e+01    1.459145e+04
  2.617023e+01    1.457985e+04
  2.619312e+01    1.458968e+04
  2.621600e+01    1.463292e+04
  2.623889e+01    1.462823e+04
  2.626177e+01    1.465539e+04
  2.628466e+01    1.466622e+04
  2.630754e+01    1.466492e+04
  2.633043e+01    1.466613e+04
  2.635331e+01    1.467216e+04
  2.637620e+01    1.467152e+04
  2.639908e+01    1.464979e+04
  2.642197e+01    1.461376e+04
  2.644486e+01    1.457021e+04
  2.646774e+01    1.455114e+04
  2.649063e+01    1.446141e+04
  2.651351e+01    1.440876e+04
  2.653640e+01    1.434972e+04
  2.655928e+01    1.430369e+04
  2.658217e+01    1.425596e+04
  2.660505e+01    1.422651e+04
  2.662794e+01    1.421712e+04
  2.665082e+01    1.417948e+04
  2.667371e+01    1.413938e+04
  2.669659e+01    1.410743e+04
  2.671948e+01    1.408182e+04
  2.674237e+01    1.405188e+04
  2.676525e+01    1.402235e+04
  2.678814e+01    1.398185e+04
  2.681102e+01    1.395713e+04
  2.683391e+01    1.391450e+04
  2.685679e+01    1.388745e+04
  2.687968e+01    1.387767e+04
  2.690256e+01    1.382138e+04
  2.692545e+01    1.380243e+04
  2.694833e+01    1.377110e+04
  2.697122e+01    1.372787e+04
  2.699410e+01    1.369744e+04
  2.701699e+01    1.369456e+04
  2.703988e+01    1.364732e+04
  2.706276e+01    1.361045e+04
  2.708565e+01    1.359480e+04
  2.710853e+01    1.356738e+04
  2.713142e+01    1.354767e+04
  2.715430e+01    1.352737e+04
  2.717719e+01    1.349593e+04
  2.720007e+01    1.344897e+04
  2.722296e+01    1.341687e+04
  2.724584e+01    1.338033e+04
  2.726873e+01    1.337344e+04
  2.729161e+01    1.334702e+04
  2.731450e+01    1.331710e+04
  2.733738e+01    1.327259e+04
  2.736027e+01    1.323838e+04
  2.738316e+01    1.321708e+04
  2.740604e+01    1.319079e+04
  2.742893e+01    1.316786e+04
  2.745181e+01    1.315511e+04
  2.747470e+01    1.312413e+04
  2.749758e+01    1.309755e+04
  2.752047e+01    1.307317e+04
  2.754335e+01    1.305438e+04
  2.756624e+01    1.304176e+04
  2.758912e+01    1.302954e+04
  2.761201e+01    1.300324e+04
  2.763489e+01    1.297700e+04
  2.765778e+01    1.296431e+04
  2.768067e+01    1.294630e+04
  2.770355e+01    1.293622e+04
  2.772644e+01    1.290651e+04
  2.774932e+01    1.286771e+04
  2.777221e+01    1.284472e+04
  2.779509e+01    1.282015e+04
  2.781798e+01    1.281412e+04
  2.784086e+01    1.280237e+04
  2.786375e+01    1.279886e+04
  2.788663e+01    1.278727e+04
  2.790952e+01    1.276748e+04
  2.793240e+01    1.275269e+04
  2.795529e+01    1.273297e+04
  2.797818e+01    1.271681e+04
  2.800106e+01    1.269083e+04
  2.802395e+01    1.266193e+04
  2.804683e+01    1.263576e+04
  2.806972e+01    1.261984e+04
  2.809260e+01    1.260282e+04
  2.811549e+01    1.257635e+04
  2.813837e+01    1.255760e+04
  2.816126e+01    1.254009e+04
  2.818414e+01    1.252546e+04
  2.820703e+01    1.250805e+04
  2.822991e+01    1.248588e+04
  2.825280e+01    1.247218e+04
  2.827568e+01    1.246366e+04
  2.829857e+01    1.245168e+04
  2.832146e+01    1.243431e+04
  2.834434e+01    1.240584e+04
  2.836723e+01    1.238863e+04
  2.839011e+01    1.238200e+04
  2.841300e+01    1.235786e+04
  2.843588e+01    1.234836e+04
  2.845877e+01    1.232310e+04
  2.848165e+01    1.230624e+04
  2.850454e+01    1.229680e+04
  2.852742e+01    1.229106e+04
  2.855031e+01    1.229242e+04
  2.857319e+01    1.226855e+04
  2.859608e+01    1.224045e+04
  2.861897e+01    1.221931e+04
  2.864185e+01    1.220393e+04
  2.866474e+01    1.218657e+04
  2.868762e+01    1.214640e+04
  2.871051e+01    1.212624e+04
  2.873339e+01    1.210839e+04
  2.875628e+01    1.208704e+04
  2.877916e+01    1.207092e+04
  2.880205e+01    1.203999e+04
  2.882493e+01    1.201899e+04
  2.884782e+01    1.200559e+04
  2.887070e+01    1.198807e+04
  2.889359e+01    1.196265e+04
  2.891648e+01    1.193337e+04
  2.893936e+01    1.190683e+04
  2.896225e+01    1.188536e+04
  2.898513e+01    1.186753e+04
  2.900802e+01    1.184515e+04
  2.903090e+01    1.181484e+04
  2.905379e+01    1.178742e+04
  2.907667e+01    1.177353e+04
  2.909956e+01    1.174608e+04
  2.912244e+01    1.172539e+04
  2.914533e+01    1.170966e+04
  2.916821e+01    1.169671e+04
  2.919110e+01    1.167492e+04
  2.921398e+01    1.165795e+04
  2.923687e+01    1.164358e+04
  2.925976e+01    1.162011e+04
  2.928264e+01    1.160356e+04
  2.930553e+01    1.159258e+04
  2.932841e+01    1.157196e+04
  2.935130e+01    1.155970e+04
  2.937418e+01    1.154473e+04
  2.939707e+01    1.153377e+04
  2.941995e+01    1.150770e+04
  2.944284e+01    1.149270e+04
  2.946572e+01    1.149042e+04
  2.948861e+01    1.147226e+04
  2.951149e+01    1.144872e+04
  2.953438e+01    1.144179e+04
  2.955727e+01    1.143149e+04
  2.958015e+01    1.141794e+04
  2.960304e+01    1.140760e+04
  2.962592e+01    1.139625e+04
  2.964881e+01    1.138386e+04
  2.967169e+01    1.136548e+04
  2.969458e+01    1.135261e+04
  2.971746e+01    1.133763e+04
  2.974035e+01    1.132792e+04
  2.976323e+01    1.131365e+04
  2.978612e+01    1.130791e+04
  2.980900e+01    1.130078e+04
  2.983189e+01    1.129296e+04
  2.985478e+01    1.127767e+04
  2.987766e+01    1.124931e+04
  2.990055e+01    1.123315e+04
  2.992343e+01    1.122577e+04
  2.994632e+01    1.121130e+04
  2.996920e+01    1.120003e+04
  2.999209e+01    1.119361e+04
  3.001497e+01    1.118978e+04
  3.003786e+01    1.117876e+04
  3.006074e+01    1.117082e+04
  3.008363e+01    1.116063e+04
  3.010651e+01    1.115553e+04
  3.012940e+01    1.115952e+04
  3.015228e+01    1.113981e+04
  3.017517e+01    1.112526e+04
  3.019806e+01    1.112035e+04
  3.022094e+01    1.109326e+04
  3.024383e+01    1.108338e+04
  3.026671e+01    1.107397e+04
  3.028960e+01    1.106219e+04
  3.031248e+01    1.105450e+04
  3.033537e+01    1.105579e+04
  3.035825e+01    1.106000e+04
  3.038114e+01    1.104433e+04
  3.040402e+01    1.103107e+04
  3.042691e+01    1.101856e+04
  3.044979e+01    1.101200e+04
  3.047268e+01    1.100857e+04
  3.049557e+01    1.099732e+04
  3.051845e+01    1.097752e+04
  3.054134e+01    1.095640e+04
  3.056422e+01    1.095139e+04
  3.058711e+01    1.094492e+04
  3.060999e+01    1.093515e+04
  3.063288e+01    1.091752e+04
  3.065576e+01    1.090734e+04
  3.067865e+01    1.090284e+04
  3.070153e+01    1.089792e+04
  3.072442e+01    1.088948e+04
  3.074730e+01    1.087934e+04
  3.077019e+01    1.086911e+04
  3.079308e+01    1.087138e+04
  3.081596e+01    1.085451e+04
  3.083885e+01    1.083603e+04
  3.086173e+01    1.081985e+04
  3.088462e+01    1.081479e+04
  3.090750e+01    1.079823e+04
  3.093039e+01    1.078256e+04
  3.095327e+01    1.076362e+04
  3.097616e+01    1.074959e+04
  3.099904e+01    1.074691e+04
  3.102193e+01    1.073996e+04
  3.104481e+01    1.072761e+04
  3.106770e+01    1.070805e+04
  3.109059e+01    1.067938e+04
  3.111347e+01    1.067237e+04
  3.113636e+01    1.067533e+04
  3.115924e+01    1.066631e+04
  3.118213e+01    1.065379e+04
  3.120501e+01    1.064296e+04
  3.122790e+01    1.062907e+04
  3.125078e+01    1.061447e+04
  3.127367e+01    1.059290e+04
  3.129655e+01    1.058448e+04
  3.131944e+01    1.057880e+04
  3.134232e+01    1.055588e+04
  3.136521e+01    1.053853e+04
  3.138809e+01    1.053231e+04
  3.141098e+01    1.053523e+04
  3.143387e+01    1.052264e+04
  3.145675e+01    1.051098e+04
  3.147964e+01    1.049850e+04
  3.150252e+01    1.048016e+04
  3.152541e+01    1.047490e+04
  3.154829e+01    1.045765e+04
  3.157118e+01    1.044681e+04
  3.159406e+01    1.044172e+04
  3.161695e+01    1.042856e+04
  3.163983e+01    1.040767e+04
  3.166272e+01    1.039968e+04
  3.168560e+01    1.039101e+04
  3.170849e+01    1.038076e+04
  3.173138e+01    1.037405e+04
  3.175426e+01    1.036054e+04
  3.177715e+01    1.034949e+04
  3.180003e+01    1.033947e+04
  3.182292e+01    1.032953e+04
  3.184580e+01    1.032735e+04
  3.186869e+01    1.032449e+04
  3.189157e+01    1.031270e+04
  3.191446e+01    1.030744e+04
  3.193734e+01    1.030760e+04
  3.196023e+01    1.030266e+04
  3.198311e+01    1.028898e+04
  3.200600e+01    1.027490e+04
  3.202889e+01    1.026728e+04
  3.205177e+01    1.025809e+04
  3.207466e+01    1.024961e+04
  3.209754e+01    1.023536e+04
  3.212043e+01    1.022808e+04
  3.214331e+01    1.022524e+04
  3.216620e+01    1.022300e+04
  3.218908e+01    1.020700e+04
  3.221197e+01    1.019483e+04
  3.223485e+01    1.019407e+04
  3.225774e+01    1.019625e+04
  3.228062e+01    1.018895e+04
  3.230351e+01    1.017664e+04
  3.232639e+01    1.017257e+04
  3.234928e+01    1.016812e+04
  3.237217e+01    1.017220e+04
  3.239505e+01    1.016252e+04
  3.241794e+01    1.015533e+04
  3.244082e+01    1.014542e+04
  3.246371e+01    1.013830e+04
  3.248659e+01    1.013070e+04
  3.250948e+01    1.012777e+04
  3.253236e+01    1.011598e+04
  3.255525e+01    1.010270e+04
  3.257813e+01    1.009369e+04
  3.260102e+01    1.009274e+04
  3.262390e+01    1.009127e+04
  3.264679e+01    1.008114e+04
  3.266968e+01    1.006779e+04
  3.269256e+01    1.005261e+04
  3.271545e+01    1.003720e+04
  3.273833e+01    1.002368e+04
  3.276122e+01    1.001024e+04
  3.278410e+01    1.000068e+04
  3.280699e+01    9.994411e+03
  3.282987e+01    9.984480e+03
  3.285276e+01    9.962556e+03
  3.287564e+01    9.951562e+03
  3.289853e+01    9.941972e+03
  3.292141e+01    9.913035e+03
  3.294430e+01    9.897136e+03
  3.296719e+01    9.885596e+03
  3.299007e+01    9.867648e+03
  3.301296e+01    9.846973e+03
  3.303584e+01    9.828926e+03
  3.305873e+01    9.819300e+03
  3.308161e+01    9.801497e+03
  3.310450e+01    9.787720e+03
  3.312738e+01    9.776989e+03
  3.315027e+01    9.767060e+03
  3.317315e+01    9.743915e+03
  3.319604e+01    9.722794e+03
  3.321892e+01    9.710222e+03
  3.324181e+01    9.698786e+03
  3.326469e+01    9.684423e+03
  3.328758e+01    9.677218e+03
  3.331047e+01    9.668596e+03
  3.333335e+01    9.648321e+03
  3.335624e+01    9.623813e+03
  3.337912e+01    9.608475e+03
  3.340201e+01    9.593017e+03
  3.342489e+01    9.582864e+03
  3.344778e+01    9.572835e+03
  3.347066e+01    9.559521e+03
  3.349355e+01    9.554205e+03
  3.351643e+01    9.542625e+03
  3.353932e+01    9.536242e+03
  3.356220e+01    9.533471e+03
  3.358509e+01    9.520883e+03
  3.360798e+01    9.503090e+03
  3.363086e+01    9.482682e+03
  3.365375e+01    9.477175e+03
  3.367663e+01    9.470502e+03
  3.369952e+01    9.460011e+03
  3.372240e+01    9.453961e+03
  3.374529e+01    9.437163e+03
  3.376817e+01    9.426005e+03
  3.379106e+01    9.417826e+03
  3.381394e+01    9.414143e+03
  3.383683e+01    9.400104e+03
  3.385971e+01    9.384974e+03
  3.388260e+01    9.374771e+03
  3.390549e+01    9.367240e+03
  3.392837e+01    9.363613e+03
  3.395126e+01    9.353411e+03
  3.397414e+01    9.343646e+03
  3.399703e+01    9.328805e+03
  3.401991e+01    9.316266e+03
  3.404280e+01    9.306450e+03
  3.406568e+01    9.297083e+03
  3.408857e+01    9.294220e+03
  3.411145e+01    9.286121e+03
  3.413434e+01    9.271384e+03
  3.415722e+01    9.270771e+03
  3.418011e+01    9.267539e+03
  3.420300e+01    9.259635e+03
  3.422588e+01    9.250767e+03
  3.424877e+01    9.249164e+03
  3.427165e+01    9.249941e+03
  3.429454e+01    9.248515e+03
  3.431742e+01    9.255569e+03
  3.434031e+01    9.253491e+03
  3.436319e+01    9.248557e+03
  3.438608e+01    9.238759e+03
  3.440896e+01    9.236093e+03
  3.443185e+01    9.227896e+03
  3.445473e+01    9.211579e+03
  3.447762e+01    9.196688e+03
  3.450050e+01    9.195335e+03
  3.452339e+01    9.196034e+03
  3.454628e+01    9.198212e+03
  3.456916e+01    9.197095e+03
  3.459205e+01    9.190942e+03
  3.461493e+01    9.180531e+03
  3.463782e+01    9.180038e+03
  3.466070e+01    9.177096e+03
  3.468359e+01    9.170738e+03
  3.470647e+01    9.170481e+03
  3.472936e+01    9.166599e+03
  3.475224e+01    9.158593e+03
  3.477513e+01    9.148793e+03
  3.479801e+01    9.137090e+03
  3.482090e+01    9.135224e+03
  3.484379e+01    9.128812e+03
  3.486667e+01    9.132542e+03
  3.488956e+01    9.135370e+03
  3.491244e+01    9.123868e+03
  3.493533e+01    9.123291e+03
  3.495821e+01    9.111540e+03
  3.498110e+01    9.107627e+03
  3.500398e+01    9.101688e+03
  3.502687e+01    9.088542e+03
  3.504975e+01    9.082026e+03
  3.507264e+01    9.080736e+03
  3.509552e+01    9.068729e+03
  3.511841e+01    9.054538e+03
  3.514130e+01    9.079949e+03
  3.516418e+01    9.278008e+03
  3.518707e+01    9.339843e+03
  3.520995e+01    9.135295e+03
  3.523284e+01    8.998170e+03
  3.525572e+01    8.985896e+03
  3.527861e+01    8.966146e+03
  3.530149e+01    8.957614e+03
  3.532438e+01    8.941683e+03
  3.534726e+01    8.926666e+03
  3.537015e+01    8.915296e+03
  3.539303e+01    8.895998e+03
  3.541592e+01    8.876495e+03
  3.543880e+01    8.852142e+03
  3.546169e+01    8.836343e+03
  3.548458e+01    8.832236e+03
  3.550746e+01    8.819228e+03
  3.553035e+01    8.803579e+03
  3.555323e+01    8.795389e+03
  3.557612e+01    8.783950e+03
  3.559900e+01    8.765047e+03
  3.562189e+01    8.749606e+03
  3.564477e+01    8.739260e+03
  3.566766e+01    8.736965e+03
  3.569054e+01    8.727187e+03
  3.571343e+01    8.725003e+03
  3.573631e+01    8.713957e+03
  3.575920e+01    8.691606e+03
  3.578209e+01    8.684641e+03
  3.580497e+01    8.672295e+03
  3.582786e+01    8.662135e+03
  3.585074e+01    8.656446e+03
  3.587363e+01    8.651813e+03
  3.589651e+01    8.637825e+03
  3.591940e+01    8.624882e+03
  3.594228e+01    8.613422e+03
  3.596517e+01    8.607866e+03
  3.598805e+01    8.599809e+03
  3.601094e+01    8.598497e+03
  3.603382e+01    8.595656e+03
  3.605671e+01    8.585123e+03
  3.607960e+01    8.582737e+03
  3.610248e+01    8.574578e+03
  3.612537e+01    8.567421e+03
  3.614825e+01    8.561647e+03
  3.617114e+01    8.563426e+03
  3.619402e+01    8.564668e+03
  3.621691e+01    8.568702e+03
  3.623979e+01    8.559904e+03
  3.626268e+01    8.557767e+03
  3.628556e+01    8.552202e+03
  3.630845e+01    8.543645e+03
  3.633133e+01    8.537717e+03
  3.635422e+01    8.541821e+03
  3.637710e+01    8.541213e+03
  3.639999e+01    8.531334e+03
  3.642288e+01    8.530275e+03
  3.644576e+01    8.520933e+03
  3.646865e+01    8.524282e+03
  3.649153e+01    8.524099e+03
  3.651442e+01    8.507181e+03
  3.653730e+01    8.514885e+03
  3.656019e+01    8.518623e+03
  3.658307e+01    8.500489e+03
  3.660596e+01    8.500305e+03
  3.662884e+01    8.498047e+03
  3.665173e+01    8.488903e+03
  3.667461e+01    8.491216e+03
  3.669750e+01    8.490600e+03
  3.672039e+01    8.488433e+03
  3.674327e+01    8.482409e+03
  3.676616e+01    8.477872e+03
  3.678904e+01    8.479638e+03
  3.681193e+01    8.474680e+03
  3.683481e+01    8.474883e+03
  3.685770e+01    8.463834e+03
  3.688058e+01    8.470281e+03
  3.690347e+01    8.473197e+03
  3.692635e+01    8.468020e+03
  3.694924e+01    8.455109e+03
  3.697212e+01    8.452111e+03
  3.699501e+01    8.457840e+03
  3.701790e+01    8.449131e+03
  3.704078e+01    8.450873e+03
  3.706367e+01    8.441251e+03
  3.708655e+01    8.435778e+03
  3.710944e+01    8.442699e+03
  3.713232e+01    8.441858e+03
  3.715521e+01    8.437540e+03
  3.717809e+01    8.436890e+03
  3.720098e+01    8.442182e+03
  3.722386e+01    8.436147e+03
  3.724675e+01    8.426374e+03
  3.726963e+01    8.426297e+03
  3.729252e+01    8.420004e+03
  3.731541e+01    8.417952e+03
  3.733829e+01    8.418569e+03
  3.736118e+01    8.410668e+03
  3.738406e+01    8.409035e+03
  3.740695e+01    8.407249e+03
  3.742983e+01    8.397810e+03
  3.745272e+01    8.389468e+03
  3.747560e+01    8.390303e+03
  3.749849e+01    8.384022e+03
  3.752137e+01    8.382649e+03
  3.754426e+01    8.386811e+03
  3.756714e+01    8.382741e+03
  3.759003e+01    8.380370e+03
  3.761291e+01    8.375215e+03
  3.763580e+01    8.370707e+03
  3.765869e+01    8.368165e+03
  3.768157e+01    8.357246e+03
  3.770446e+01    8.342809e+03
  3.772734e+01    8.341544e+03
  3.775023e+01    8.341021e+03
  3.777311e+01    8.337064e+03
  3.779600e+01    8.342029e+03
  3.781888e+01    8.338604e+03
  3.784177e+01    8.333438e+03
  3.786465e+01    8.330416e+03
  3.788754e+01    8.330162e+03
  3.791042e+01    8.322278e+03
  3.793331e+01    8.318680e+03
  3.795620e+01    8.312045e+03
  3.797908e+01    8.303162e+03
  3.800197e+01    8.290081e+03
  3.802485e+01    8.278446e+03
  3.804774e+01    8.278455e+03
  3.807062e+01    8.282029e+03
  3.809351e+01    8.277565e+03
  3.811639e+01    8.272365e+03
  3.813928e+01    8.262611e+03
  3.816216e+01    8.252045e+03
  3.818505e+01    8.250319e+03
  3.820793e+01    8.237820e+03
  3.823082e+01    8.226217e+03
  3.825371e+01    8.222143e+03
  3.827659e+01    8.216385e+03
  3.829948e+01    8.213359e+03
  3.832236e+01    8.209632e+03
  3.834525e+01    8.197938e+03
  3.836813e+01    8.198386e+03
  3.839102e+01    8.191462e+03
  3.841390e+01    8.184435e+03
  3.843679e+01    8.172437e+03
  3.845967e+01    8.168443e+03
  3.848256e+01    8.165146e+03
  3.850544e+01    8.162512e+03
  3.852833e+01    8.159018e+03
  3.855121e+01    8.152687e+03
  3.857410e+01    8.146741e+03
  3.859699e+01    8.134502e+03
  3.861987e+01    8.138478e+03
  3.864276e+01    8.133201e+03
  3.866564e+01    8.118389e+03
  3.868853e+01    8.111408e+03
  3.871141e+01    8.104642e+03
  3.873430e+01    8.102093e+03
  3.875718e+01    8.091055e+03
  3.878007e+01    8.089286e+03
  3.880295e+01    8.072504e+03
  3.882584e+01    8.064491e+03
  3.884872e+01    8.052380e+03
  3.887161e+01    8.051290e+03
  3.889450e+01    8.046330e+03
  3.891738e+01    8.034689e+03
  3.894027e+01    8.029167e+03
  3.896315e+01    8.016486e+03
  3.898604e+01    8.004061e+03
  3.900892e+01    7.992013e+03
  3.903181e+01    7.985800e+03
  3.905469e+01    7.970326e+03
  3.907758e+01    7.947178e+03
  3.910046e+01    7.939750e+03
  3.912335e+01    7.933270e+03
  3.914623e+01    7.917697e+03
  3.916912e+01    7.904251e+03
  3.919201e+01    7.897860e+03
  3.921489e+01    7.871266e+03
  3.923778e+01    7.859926e+03
  3.926066e+01    7.843459e+03
  3.928355e+01    7.828320e+03
  3.930643e+01    7.815136e+03
  3.932932e+01    7.793747e+03
  3.935220e+01    7.776917e+03
  3.937509e+01    7.767740e+03
  3.939797e+01    7.752253e+03
  3.942086e+01    7.733933e+03
  3.944374e+01    7.706196e+03
  3.946663e+01    7.688870e+03
  3.948951e+01    7.674424e+03
  3.951240e+01    7.657922e+03
  3.953529e+01    7.641523e+03
  3.955817e+01    7.628303e+03
  3.958106e+01    7.608718e+03
  3.960394e+01    7.586046e+03
  3.962683e+01    7.567536e+03
  3.964971e+01    7.554792e+03
  3.967260e+01    7.537298e+03
  3.969548e+01    7.520094e+03
  3.971837e+01    7.502776e+03
  3.974125e+01    7.485836e+03
  3.976414e+01    7.468171e+03
  3.978702e+01    7.453248e+03
  3.980991e+01    7.432133e+03
  3.983280e+01    7.417170e+03
  3.985568e+01    7.407362e+03
  3.987857e+01    7.402019e+03
  3.990145e+01    7.395891e+03
  3.992434e+01    7.368947e+03
  3.994722e+01    7.354300e+03
  3.997011e+01    7.344111e+03
  3.999299e+01    7.329194e+03
  4.001588e+01    7.309864e+03
  4.003876e+01    7.289222e+03
  4.006165e+01    7.281646e+03
  4.008453e+01    7.272664e+03
  4.010742e+01    7.253790e+03
  4.013031e+01    7.247406e+03
  4.015319e+01    7.236227e+03
  4.017608e+01    7.221156e+03
  4.019896e+01    7.210022e+03
  4.022185e+01    7.198252e+03
  4.024473e+01    7.181964e+03
  4.026762e+01    7.166480e+03
  4.029050e+01    7.156047e+03
  4.031339e+01    7.146765e+03
  4.033627e+01    7.131372e+03
  4.035916e+01    7.114276e+03
  4.038204e+01    7.104313e+03
  4.040493e+01    7.095276e+03
  4.042782e+01    7.080635e+03
  4.045070e+01    7.076510e+03
  4.047359e+01    7.065864e+03
  4.049647e+01    7.046067e+03
  4.051936e+01    7.035488e+03
  4.054224e+01    7.028974e+03
  4.056513e+01    7.008865e+03
  4.058801e+01    6.994597e+03
  4.061090e+01    6.982779e+03
  4.063378e+01    6.979688e+03
  4.065667e+01    6.971826e+03
  4.067955e+01    6.958873e+03
  4.070244e+01    6.953061e+03
  4.072532e+01    6.938716e+03
  4.074821e+01    6.923733e+03
  4.077110e+01    6.917125e+03
  4.079398e+01    6.912885e+03
  4.081687e+01    6.896103e+03
  4.083975e+01    6.888278e+03
  4.086264e+01    6.882242e+03
  4.088552e+01    6.870297e+03
  4.090841e+01    6.863561e+03
  4.093129e+01    6.856394e+03
  4.095418e+01    6.850569e+03
  4.097706e+01    6.839011e+03
  4.099995e+01    6.838349e+03
  4.102283e+01    6.824962e+03
  4.104572e+01    6.804166e+03
  4.106861e+01    6.795032e+03
  4.109149e+01    6.781416e+03
  4.111438e+01    6.776144e+03
  4.113726e+01    6.770314e+03
  4.116015e+01    6.758544e+03
  4.118303e+01    6.749473e+03
  4.120592e+01    6.741437e+03
  4.122880e+01    6.743804e+03
  4.125169e+01    6.737650e+03
  4.127457e+01    6.727444e+03
  4.129746e+01    6.718236e+03
  4.132034e+01    6.704185e+03
  4.134323e+01    6.704340e+03
  4.136612e+01    6.705073e+03
  4.138900e+01    6.690408e+03
  4.141189e+01    6.691348e+03
  4.143477e+01    6.685436e+03
  4.145766e+01    6.666742e+03
  4.148054e+01    6.660252e+03
  4.150343e+01    6.666152e+03
  4.152631e+01    6.654027e+03
  4.154920e+01    6.647773e+03
  4.157208e+01    6.639982e+03
  4.159497e+01    6.639636e+03
  4.161785e+01    6.641958e+03
  4.164074e+01    6.635943e+03
  4.166362e+01    6.626682e+03
  4.168651e+01    6.628107e+03
  4.170940e+01    6.626434e+03
  4.173228e+01    6.617736e+03
  4.175517e+01    6.605927e+03
  4.177805e+01    6.596645e+03
  4.180094e+01    6.583019e+03
  4.182382e+01    6.570033e+03
  4.184671e+01    6.558473e+03
  4.186959e+01    6.559058e+03
  4.189248e+01    6.552323e+03
  4.191536e+01    6.544507e+03
  4.193825e+01    6.532312e+03
  4.196113e+01    6.522584e+03
  4.198402e+01    6.526926e+03
  4.200691e+01    6.515765e+03
  4.202979e+01    6.509195e+03
  4.205268e+01    6.504243e+03
  4.207556e+01    6.494708e+03
  4.209845e+01    6.483390e+03
  4.212133e+01    6.479136e+03
  4.214422e+01    6.468032e+03
  4.216710e+01    6.458562e+03
  4.218999e+01    6.449498e+03
  4.221287e+01    6.448939e+03
  4.223576e+01    6.436872e+03
  4.225864e+01    6.432953e+03
  4.228153e+01    6.421369e+03
  4.230442e+01    6.421388e+03
  4.232730e+01    6.419124e+03
  4.235019e+01    6.412969e+03
  4.237307e+01    6.411735e+03
  4.239596e+01    6.400605e+03
  4.241884e+01    6.390815e+03
  4.244173e+01    6.392353e+03
  4.246461e+01    6.380599e+03
  4.248750e+01    6.371627e+03
  4.251038e+01    6.368343e+03
  4.253327e+01    6.356170e+03
  4.255615e+01    6.344768e+03
  4.257904e+01    6.334386e+03
  4.260192e+01    6.331593e+03
  4.262481e+01    6.325168e+03
  4.264770e+01    6.314542e+03
  4.267058e+01    6.317493e+03
  4.269347e+01    6.312266e+03
  4.271635e+01    6.301095e+03
  4.273924e+01    6.290740e+03
  4.276212e+01    6.285577e+03
  4.278501e+01    6.282321e+03
  4.280789e+01    6.272833e+03
  4.283078e+01    6.251571e+03
  4.285366e+01    6.245954e+03
  4.287655e+01    6.241138e+03
  4.289943e+01    6.240633e+03
  4.292232e+01    6.230150e+03
  4.294521e+01    6.218464e+03
  4.296809e+01    6.211740e+03
  4.299098e+01    6.215260e+03
  4.301386e+01    6.209527e+03
  4.303675e+01    6.192947e+03
  4.305963e+01    6.183874e+03
  4.308252e+01    6.168540e+03
  4.310540e+01    6.173421e+03
  4.312829e+01    6.167188e+03
  4.315117e+01    6.162090e+03
  4.317406e+01    6.160250e+03
  4.319694e+01    6.154679e+03
  4.321983e+01    6.150775e+03
  4.324272e+01    6.145764e+03
  4.326560e+01    6.137082e+03
  4.328849e+01    6.130438e+03
  4.331137e+01    6.132862e+03
  4.333426e+01    6.117916e+03
  4.335714e+01    6.117764e+03
  4.338003e+01    6.108690e+03
  4.340291e+01    6.099691e+03
  4.342580e+01    6.097159e+03
  4.344868e+01    6.086906e+03
  4.347157e+01    6.080524e+03
  4.349445e+01    6.068539e+03
  4.351734e+01    6.061495e+03
  4.354022e+01    6.045296e+03
  4.356311e+01    6.045801e+03
  4.358600e+01    6.045406e+03
  4.360888e+01    6.037298e+03
  4.363177e+01    6.032615e+03
  4.365465e+01    6.026785e+03
  4.367754e+01    6.014048e+03
  4.370042e+01    6.009891e+03
  4.372331e+01    6.005649e+03
  4.374619e+01    6.005942e+03
  4.376908e+01    6.003500e+03
  4.379196e+01    5.991967e+03
  4.381485e+01    5.986904e+03
  4.383773e+01    5.981069e+03
  4.386062e+01    5.977599e+03
  4.388351e+01    5.969583e+03
  4.390639e+01    5.967027e+03
  4.392928e+01    5.955504e+03
  4.395216e+01    5.953669e+03
  4.397505e+01    5.957698e+03
  4.399793e+01    5.950200e+03
  4.402082e+01    5.944308e+03
  4.404370e+01    5.938145e+03
  4.406659e+01    5.930252e+03
  4.408947e+01    5.926134e+03
  4.411236e+01    5.923712e+03
  4.413524e+01    5.914134e+03
  4.415813e+01    5.907392e+03
  4.418102e+01    5.907384e+03
  4.420390e+01    5.911862e+03
  4.422679e+01    5.899379e+03
  4.424967e+01    5.894372e+03
  4.427256e+01    5.895998e+03
  4.429544e+01    5.894842e+03
  4.431833e+01    5.889062e+03
  4.434121e+01    5.890209e+03
  4.436410e+01    5.883174e+03
  4.438698e+01    5.871261e+03
  4.440987e+01    5.870668e+03
  4.443275e+01    5.865455e+03
  4.445564e+01    5.868080e+03
  4.447853e+01    5.865145e+03
  4.450141e+01    5.857164e+03
  4.452430e+01    5.851400e+03
  4.454718e+01    5.850222e+03
  4.457007e+01    5.847282e+03
  4.459295e+01    5.854441e+03
  4.461584e+01    5.846839e+03
  4.463872e+01    5.836946e+03
  4.466161e+01    5.836687e+03
  4.468449e+01    5.832095e+03
  4.470738e+01    5.822624e+03
  4.473026e+01    5.822316e+03
  4.475315e+01    5.825220e+03
  4.477603e+01    5.819812e+03
  4.479892e+01    5.817560e+03
  4.482181e+01    5.814222e+03
  4.484469e+01    5.813703e+03
  4.486758e+01    5.818319e+03
  4.489046e+01    5.803792e+03
  4.491335e+01    5.795640e+03
  4.493623e+01    5.797309e+03
  4.495912e+01    5.793482e+03
  4.498200e+01    5.789636e+03
  4.500489e+01    5.777139e+03
  4.502777e+01    5.774298e+03
  4.505066e+01    5.779432e+03
  4.507354e+01    5.775047e+03
  4.509643e+01    5.772148e+03
  4.511932e+01    5.764381e+03
  4.514220e+01    5.760559e+03
  4.516509e+01    5.754678e+03
  4.518797e+01    5.755365e+03
  4.521086e+01    5.758433e+03
  4.523374e+01    5.748929e+03
  4.525663e+01    5.745442e+03
  4.527951e+01    5.742518e+03
  4.530240e+01    5.737571e+03
  4.532528e+01    5.726129e+03
  4.534817e+01    5.722808e+03
  4.537105e+01    5.726077e+03
  4.539394e+01    5.711311e+03
  4.541683e+01    5.703165e+03
  4.543971e+01    5.698322e+03
  4.546260e+01    5.699339e+03
  4.548548e+01    5.692565e+03
  4.550837e+01    5.684642e+03
  4.553125e+01    5.676924e+03
  4.555414e+01    5.676310e+03
  4.557702e+01    5.670842e+03
  4.559991e+01    5.665482e+03
  4.562279e+01    5.651271e+03
  4.564568e+01    5.644554e+03
  4.566856e+01    5.643662e+03
  4.569145e+01    5.649834e+03
  4.571433e+01    5.645559e+03
  4.573722e+01    5.633469e+03
  4.576011e+01    5.629271e+03
  4.578299e+01    5.622385e+03
  4.580588e+01    5.618729e+03
  4.582876e+01    5.607441e+03
  4.585165e+01    5.608085e+03
  4.587453e+01    5.603426e+03
  4.589742e+01    5.604368e+03
  4.592030e+01    5.585367e+03
  4.594319e+01    5.581415e+03
  4.596607e+01    5.574216e+03
  4.598896e+01    5.560146e+03
  4.601184e+01    5.556699e+03
  4.603473e+01    5.541954e+03
  4.605762e+01    5.542347e+03
  4.608050e+01    5.527110e+03
  4.610339e+01    5.520671e+03
  4.612627e+01    5.529705e+03
  4.614916e+01    5.510341e+03
  4.617204e+01    5.498514e+03
  4.619493e+01    5.495987e+03
  4.621781e+01    5.490147e+03
  4.624070e+01    5.498047e+03
  4.626358e+01    5.500590e+03
  4.628647e+01    5.482813e+03
  4.630935e+01    5.472206e+03
  4.633224e+01    5.477609e+03
  4.635513e+01    5.471963e+03
  4.637801e+01    5.458158e+03
  4.640090e+01    5.453148e+03
  4.642378e+01    5.457905e+03
  4.644667e+01    5.445812e+03
  4.646955e+01    5.435283e+03
  4.649244e+01    5.443470e+03
  4.651532e+01    5.437429e+03
  4.653821e+01    5.432866e+03
  4.656109e+01    5.422898e+03
  4.658398e+01    5.417382e+03
  4.660686e+01    5.407935e+03
  4.662975e+01    5.403300e+03
  4.665263e+01    5.395070e+03
  4.667552e+01    5.387004e+03
  4.669841e+01    5.376397e+03
  4.672129e+01    5.372237e+03
  4.674418e+01    5.362284e+03
  4.676706e+01    5.360717e+03
  4.678995e+01    5.373081e+03
  4.681283e+01    5.364888e+03
  4.683572e+01    5.356038e+03
  4.685860e+01    5.342115e+03
  4.688149e+01    5.334568e+03
  4.690437e+01    5.337402e+03
  4.692726e+01    5.340162e+03
  4.695014e+01    5.339725e+03
  4.697303e+01    5.323715e+03
  4.699592e+01    5.325332e+03
  4.701880e+01    5.312282e+03
  4.704169e+01    5.309500e+03
  4.706457e+01    5.313870e+03
  4.708746e+01    5.315956e+03
  4.711034e+01    5.317485e+03
  4.713323e+01    5.322243e+03
  4.715611e+01    5.297493e+03
  4.717900e+01    5.296507e+03
  4.720188e+01    5.282600e+03
  4.722477e+01    5.278628e+03
  4.724765e+01    5.275087e+03
  4.727054e+01    5.270452e+03
  4.729343e+01    5.277280e+03
  4.731631e+01    5.269617e+03
  4.733920e+01    5.258844e+03
  4.736208e+01    5.254964e+03
  4.738497e+01    5.270843e+03
  4.740785e+01    5.288423e+03
  4.743074e+01    5.281855e+03
  4.745362e+01    5.267343e+03
  4.747651e+01    5.288914e+03
  4.749939e+01    5.307029e+03
  4.752228e+01    5.303820e+03
  4.754516e+01    5.309717e+03
  4.756805e+01    5.250735e+03
  4.759094e+01    5.305015e+03
  4.761382e+01    5.334391e+03
  4.763671e+01    5.305627e+03
  4.765959e+01    5.270693e+03
  4.768248e+01    5.257009e+03
  4.770536e+01    5.240952e+03
  4.772825e+01    5.174112e+03
  4.775113e+01    5.207205e+03
  4.777402e+01    5.105129e+03
  4.779690e+01    5.087066e+03
  4.781979e+01    4.911419e+03
  4.784267e+01    4.743560e+03
  4.786556e+01    4.087694e+03
  4.788844e+01    1.989592e+03