File: Output/ROCK_XRD/WAM39B_integrated/uholder_toic_xrd_000001_integrated.dat
# == pyFAI calibration ==
# Distance Sample to Detector: 0.261615 m
# PONI: 2.023e-01, 2.348e-01 m
# Rotations: -0.026380 0.002005 0.000000 rad
#
# == Fit2d calibration ==
# Distance Sample-beamCenter: 261.707 mm
# Center: x=6119.331, y=5134.776 pix
# Tilt: 1.516 deg  TiltPlanRot: 4.347 deg
#
# Detector Rayonix SX165	 PixelSize= 3.950e-05, 3.950e-05 m
#    Detector has a mask: True
#    Detector has a dark current: False
#    detector has a flat field: False
#
# Wavelength: 1.12713e-10 m
# Mask applied: from detector
# Dark current applied: False
# Flat field applied: False
# Polarization factor: None
# Normalization factor: 1.0
# --> ROCK\\WAM39B_integrated\uholder_toic_xrd_000001_integrated.dat
#       2th_deg             I
  2.502596e+01    1.264233e+03
  2.504885e+01    3.312904e+03
  2.507173e+01    4.465236e+03
  2.509462e+01    4.759171e+03
  2.511750e+01    5.232546e+03
  2.514039e+01    5.485607e+03
  2.516327e+01    5.532655e+03
  2.518616e+01    5.547027e+03
  2.520905e+01    5.559117e+03
  2.523193e+01    5.517631e+03
  2.525482e+01    5.568688e+03
  2.527770e+01    5.717441e+03
  2.530059e+01    5.726815e+03
  2.532347e+01    5.700942e+03
  2.534636e+01    5.678042e+03
  2.536924e+01    5.669677e+03
  2.539213e+01    5.683476e+03
  2.541501e+01    5.695301e+03
  2.543790e+01    5.697445e+03
  2.546078e+01    5.714121e+03
  2.548367e+01    5.712795e+03
  2.550656e+01    5.669976e+03
  2.552944e+01    5.648892e+03
  2.555233e+01    5.724904e+03
  2.557521e+01    5.770869e+03
  2.559810e+01    5.778121e+03
  2.562098e+01    5.809969e+03
  2.564387e+01    5.863136e+03
  2.566675e+01    5.931977e+03
  2.568964e+01    5.975580e+03
  2.571252e+01    6.022006e+03
  2.573541e+01    6.093093e+03
  2.575829e+01    6.147961e+03
  2.578118e+01    6.180390e+03
  2.580407e+01    6.223830e+03
  2.582695e+01    6.259936e+03
  2.584984e+01    6.274417e+03
  2.587272e+01    6.276998e+03
  2.589561e+01    6.283563e+03
  2.591849e+01    6.246058e+03
  2.594138e+01    6.205997e+03
  2.596426e+01    6.182907e+03
  2.598715e+01    6.123509e+03
  2.601003e+01    6.092829e+03
  2.603292e+01    6.044975e+03
  2.605580e+01    5.997359e+03
  2.607869e+01    5.973005e+03
  2.610157e+01    5.941380e+03
  2.612446e+01    5.901963e+03
  2.614735e+01    5.869883e+03
  2.617023e+01    5.839803e+03
  2.619312e+01    5.820960e+03
  2.621600e+01    5.827590e+03
  2.623889e+01    5.833039e+03
  2.626177e+01    5.864852e+03
  2.628466e+01    5.930620e+03
  2.630754e+01    6.036752e+03
  2.633043e+01    6.204732e+03
  2.635331e+01    6.471679e+03
  2.637620e+01    6.901864e+03
  2.639908e+01    7.545881e+03
  2.642197e+01    8.430946e+03
  2.644486e+01    9.516696e+03
  2.646774e+01    1.063571e+04
  2.649063e+01    1.142017e+04
  2.651351e+01    1.170552e+04
  2.653640e+01    1.148540e+04
  2.655928e+01    1.115276e+04
  2.658217e+01    1.123528e+04
  2.660505e+01    1.200782e+04
  2.662794e+01    1.337186e+04
  2.665082e+01    1.492664e+04
  2.667371e+01    1.614333e+04
  2.669659e+01    1.626194e+04
  2.671948e+01    1.471560e+04
  2.674237e+01    1.222809e+04
  2.676525e+01    9.955617e+03
  2.678814e+01    8.315175e+03
  2.681102e+01    7.243212e+03
  2.683391e+01    6.557481e+03
  2.685679e+01    6.116437e+03
  2.687968e+01    5.829885e+03
  2.690256e+01    5.616150e+03
  2.692545e+01    5.470374e+03
  2.694833e+01    5.358227e+03
  2.697122e+01    5.271861e+03
  2.699410e+01    5.210240e+03
  2.701699e+01    5.166277e+03
  2.703988e+01    5.114255e+03
  2.706276e+01    5.077260e+03
  2.708565e+01    5.054487e+03
  2.710853e+01    5.032707e+03
  2.713142e+01    5.006727e+03
  2.715430e+01    4.979758e+03
  2.717719e+01    4.959343e+03
  2.720007e+01    4.931403e+03
  2.722296e+01    4.908990e+03
  2.724584e+01    4.885164e+03
  2.726873e+01    4.877592e+03
  2.729161e+01    4.863295e+03
  2.731450e+01    4.847614e+03
  2.733738e+01    4.824938e+03
  2.736027e+01    4.802244e+03
  2.738316e+01    4.786648e+03
  2.740604e+01    4.773303e+03
  2.742893e+01    4.764064e+03
  2.745181e+01    4.759657e+03
  2.747470e+01    4.748456e+03
  2.749758e+01    4.739009e+03
  2.752047e+01    4.732230e+03
  2.754335e+01    4.724622e+03
  2.756624e+01    4.717196e+03
  2.758912e+01    4.709289e+03
  2.761201e+01    4.701123e+03
  2.763489e+01    4.697497e+03
  2.765778e+01    4.700000e+03
  2.768067e+01    4.695588e+03
  2.770355e+01    4.697314e+03
  2.772644e+01    4.695476e+03
  2.774932e+01    4.691308e+03
  2.777221e+01    4.699339e+03
  2.779509e+01    4.708855e+03
  2.781798e+01    4.725237e+03
  2.784086e+01    4.740720e+03
  2.786375e+01    4.763845e+03
  2.788663e+01    4.784628e+03
  2.790952e+01    4.810336e+03
  2.793240e+01    4.854916e+03
  2.795529e+01    4.913405e+03
  2.797818e+01    4.997819e+03
  2.800106e+01    5.129826e+03
  2.802395e+01    5.342375e+03
  2.804683e+01    5.659526e+03
  2.806972e+01    6.080465e+03
  2.809260e+01    6.564262e+03
  2.811549e+01    6.995349e+03
  2.813837e+01    7.235624e+03
  2.816126e+01    7.150159e+03
  2.818414e+01    6.753134e+03
  2.820703e+01    6.216602e+03
  2.822991e+01    5.741621e+03
  2.825280e+01    5.401595e+03
  2.827568e+01    5.181740e+03
  2.829857e+01    5.029157e+03
  2.832146e+01    4.918654e+03
  2.834434e+01    4.824948e+03
  2.836723e+01    4.742263e+03
  2.839011e+01    4.673939e+03
  2.841300e+01    4.613266e+03
  2.843588e+01    4.562420e+03
  2.845877e+01    4.512305e+03
  2.848165e+01    4.469799e+03
  2.850454e+01    4.435863e+03
  2.852742e+01    4.404308e+03
  2.855031e+01    4.380933e+03
  2.857319e+01    4.353784e+03
  2.859608e+01    4.328326e+03
  2.861897e+01    4.308140e+03
  2.864185e+01    4.289061e+03
  2.866474e+01    4.273658e+03
  2.868762e+01    4.249805e+03
  2.871051e+01    4.232939e+03
  2.873339e+01    4.221738e+03
  2.875628e+01    4.210670e+03
  2.877916e+01    4.202815e+03
  2.880205e+01    4.183766e+03
  2.882493e+01    4.169972e+03
  2.884782e+01    4.162713e+03
  2.887070e+01    4.155538e+03
  2.889359e+01    4.148659e+03
  2.891648e+01    4.144007e+03
  2.893936e+01    4.141017e+03
  2.896225e+01    4.134993e+03
  2.898513e+01    4.136065e+03
  2.900802e+01    4.140689e+03
  2.903090e+01    4.137798e+03
  2.905379e+01    4.136766e+03
  2.907667e+01    4.146367e+03
  2.909956e+01    4.156294e+03
  2.912244e+01    4.162408e+03
  2.914533e+01    4.165827e+03
  2.916821e+01    4.170536e+03
  2.919110e+01    4.166167e+03
  2.921398e+01    4.160445e+03
  2.923687e+01    4.152960e+03
  2.925976e+01    4.135068e+03
  2.928264e+01    4.118192e+03
  2.930553e+01    4.102654e+03
  2.932841e+01    4.079066e+03
  2.935130e+01    4.055757e+03
  2.937418e+01    4.037915e+03
  2.939707e+01    4.031725e+03
  2.941995e+01    4.015812e+03
  2.944284e+01    4.000370e+03
  2.946572e+01    3.996653e+03
  2.948861e+01    3.995560e+03
  2.951149e+01    4.000606e+03
  2.953438e+01    4.013966e+03
  2.955727e+01    4.042718e+03
  2.958015e+01    4.100733e+03
  2.960304e+01    4.200688e+03
  2.962592e+01    4.348693e+03
  2.964881e+01    4.525723e+03
  2.967169e+01    4.681855e+03
  2.969458e+01    4.771934e+03
  2.971746e+01    4.746959e+03
  2.974035e+01    4.595026e+03
  2.976323e+01    4.385649e+03
  2.978612e+01    4.211301e+03
  2.980900e+01    4.098182e+03
  2.983189e+01    4.031085e+03
  2.985478e+01    3.989730e+03
  2.987766e+01    3.957984e+03
  2.990055e+01    4.027003e+03
  2.992343e+01    4.235843e+03
  2.994632e+01    4.175044e+03
  2.996920e+01    3.947348e+03
  2.999209e+01    3.924303e+03
  3.001497e+01    3.926909e+03
  3.003786e+01    3.929174e+03
  3.006074e+01    3.926850e+03
  3.008363e+01    3.923223e+03
  3.010651e+01    3.926415e+03
  3.012940e+01    3.932988e+03
  3.015228e+01    3.930668e+03
  3.017517e+01    3.932046e+03
  3.019806e+01    3.946589e+03
  3.022094e+01    3.945320e+03
  3.024383e+01    3.939659e+03
  3.026671e+01    3.943831e+03
  3.028960e+01    3.948250e+03
  3.031248e+01    3.952955e+03
  3.033537e+01    3.963545e+03
  3.035825e+01    3.976587e+03
  3.038114e+01    3.990770e+03
  3.040402e+01    4.006726e+03
  3.042691e+01    4.022443e+03
  3.044979e+01    4.037188e+03
  3.047268e+01    4.057392e+03
  3.049557e+01    4.082402e+03
  3.051845e+01    4.108143e+03
  3.054134e+01    4.138515e+03
  3.056422e+01    4.188010e+03
  3.058711e+01    4.249549e+03
  3.060999e+01    4.323601e+03
  3.063288e+01    4.424850e+03
  3.065576e+01    4.562889e+03
  3.067865e+01    4.757590e+03
  3.070153e+01    5.041700e+03
  3.072442e+01    5.462098e+03
  3.074730e+01    6.078656e+03
  3.077019e+01    6.970137e+03
  3.079308e+01    8.236074e+03
  3.081596e+01    9.907877e+03
  3.083885e+01    1.196467e+04
  3.086173e+01    1.418543e+04
  3.088462e+01    1.616494e+04
  3.090750e+01    1.731346e+04
  3.093039e+01    1.715425e+04
  3.095327e+01    1.570500e+04
  3.097616e+01    1.353669e+04
  3.099904e+01    1.134791e+04
  3.102193e+01    9.611143e+03
  3.104481e+01    8.487183e+03
  3.106770e+01    8.010104e+03
  3.109059e+01    8.194397e+03
  3.111347e+01    9.036077e+03
  3.113636e+01    1.030540e+04
  3.115924e+01    1.154106e+04
  3.118213e+01    1.217702e+04
  3.120501e+01    1.175151e+04
  3.122790e+01    1.026104e+04
  3.125078e+01    8.325427e+03
  3.127367e+01    6.661023e+03
  3.129655e+01    5.574727e+03
  3.131944e+01    4.960567e+03
  3.134232e+01    4.618278e+03
  3.136521e+01    4.418233e+03
  3.138809e+01    4.298744e+03
  3.141098e+01    4.220296e+03
  3.143387e+01    4.160282e+03
  3.145675e+01    4.114129e+03
  3.147964e+01    4.075892e+03
  3.150252e+01    4.047712e+03
  3.152541e+01    4.030061e+03
  3.154829e+01    4.009536e+03
  3.157118e+01    3.995242e+03
  3.159406e+01    3.985422e+03
  3.161695e+01    3.978745e+03
  3.163983e+01    3.969188e+03
  3.166272e+01    3.963620e+03
  3.168560e+01    3.956576e+03
  3.170849e+01    3.950657e+03
  3.173138e+01    3.951270e+03
  3.175426e+01    3.948481e+03
  3.177715e+01    3.944795e+03
  3.180003e+01    3.945339e+03
  3.182292e+01    3.942847e+03
  3.184580e+01    3.944175e+03
  3.186869e+01    3.947505e+03
  3.189157e+01    3.944158e+03
  3.191446e+01    3.945419e+03
  3.193734e+01    3.949243e+03
  3.196023e+01    3.948631e+03
  3.198311e+01    3.947645e+03
  3.200600e+01    3.949753e+03
  3.202889e+01    3.954489e+03
  3.205177e+01    3.960605e+03
  3.207466e+01    3.966437e+03
  3.209754e+01    3.967354e+03
  3.212043e+01    3.971288e+03
  3.214331e+01    3.978993e+03
  3.216620e+01    3.987754e+03
  3.218908e+01    3.990819e+03
  3.221197e+01    3.992275e+03
  3.223485e+01    3.998422e+03
  3.225774e+01    4.010045e+03
  3.228062e+01    4.011358e+03
  3.230351e+01    4.008767e+03
  3.232639e+01    4.004999e+03
  3.234928e+01    4.003688e+03
  3.237217e+01    4.001857e+03
  3.239505e+01    4.002762e+03
  3.241794e+01    4.006915e+03
  3.244082e+01    4.021786e+03
  3.246371e+01    4.048941e+03
  3.248659e+01    4.090735e+03
  3.250948e+01    4.163375e+03
  3.253236e+01    4.281643e+03
  3.255525e+01    4.429340e+03
  3.257813e+01    4.582304e+03
  3.260102e+01    4.690239e+03
  3.262390e+01    4.698997e+03
  3.264679e+01    4.589740e+03
  3.266968e+01    4.412987e+03
  3.269256e+01    4.242988e+03
  3.271545e+01    4.131040e+03
  3.273833e+01    4.069436e+03
  3.276122e+01    4.035470e+03
  3.278410e+01    4.024347e+03
  3.280699e+01    4.017279e+03
  3.282987e+01    4.017404e+03
  3.285276e+01    4.019378e+03
  3.287564e+01    4.021474e+03
  3.289853e+01    4.026631e+03
  3.292141e+01    4.018675e+03
  3.294430e+01    4.019743e+03
  3.296719e+01    4.015881e+03
  3.299007e+01    4.002022e+03
  3.301296e+01    3.991193e+03
  3.303584e+01    3.982443e+03
  3.305873e+01    3.969193e+03
  3.308161e+01    3.954662e+03
  3.310450e+01    3.943963e+03
  3.312738e+01    3.939224e+03
  3.315027e+01    3.929077e+03
  3.317315e+01    3.916199e+03
  3.319604e+01    3.908215e+03
  3.321892e+01    3.908531e+03
  3.324181e+01    3.908872e+03
  3.326469e+01    3.904857e+03
  3.328758e+01    3.906518e+03
  3.331047e+01    3.908077e+03
  3.333335e+01    3.902652e+03
  3.335624e+01    3.897275e+03
  3.337912e+01    3.897717e+03
  3.340201e+01    3.902613e+03
  3.342489e+01    3.906137e+03
  3.344778e+01    3.906448e+03
  3.347066e+01    3.903771e+03
  3.349355e+01    3.908244e+03
  3.351643e+01    3.913624e+03
  3.353932e+01    3.915763e+03
  3.356220e+01    3.917231e+03
  3.358509e+01    3.919379e+03
  3.360798e+01    3.922710e+03
  3.363086e+01    3.929583e+03
  3.365375e+01    3.941068e+03
  3.367663e+01    3.949466e+03
  3.369952e+01    3.964730e+03
  3.372240e+01    3.987942e+03
  3.374529e+01    4.011639e+03
  3.376817e+01    4.049954e+03
  3.379106e+01    4.120576e+03
  3.381394e+01    4.239094e+03
  3.383683e+01    4.436311e+03
  3.385971e+01    4.787244e+03
  3.388260e+01    5.400963e+03
  3.390549e+01    6.354129e+03
  3.392837e+01    7.572931e+03
  3.395126e+01    8.769414e+03
  3.397414e+01    9.525812e+03
  3.399703e+01    9.457282e+03
  3.401991e+01    8.540565e+03
  3.404280e+01    7.157114e+03
  3.406568e+01    5.879107e+03
  3.408857e+01    5.023296e+03
  3.411145e+01    4.545854e+03
  3.413434e+01    4.293533e+03
  3.415722e+01    4.159241e+03
  3.418011e+01    4.079756e+03
  3.420300e+01    4.021092e+03
  3.422588e+01    3.982369e+03
  3.424877e+01    3.962431e+03
  3.427165e+01    3.947944e+03
  3.429454e+01    3.933691e+03
  3.431742e+01    3.926032e+03
  3.434031e+01    3.923761e+03
  3.436319e+01    3.921058e+03
  3.438608e+01    3.917618e+03
  3.440896e+01    3.922203e+03
  3.443185e+01    3.920254e+03
  3.445473e+01    3.915694e+03
  3.447762e+01    3.917207e+03
  3.450050e+01    3.918645e+03
  3.452339e+01    3.924482e+03
  3.454628e+01    3.928211e+03
  3.456916e+01    3.930132e+03
  3.459205e+01    3.935669e+03
  3.461493e+01    3.941741e+03
  3.463782e+01    3.951912e+03
  3.466070e+01    3.959129e+03
  3.468359e+01    3.967421e+03
  3.470647e+01    3.978558e+03
  3.472936e+01    3.991532e+03
  3.475224e+01    4.010266e+03
  3.477513e+01    4.032079e+03
  3.479801e+01    4.056469e+03
  3.482090e+01    4.087338e+03
  3.484379e+01    4.114396e+03
  3.486667e+01    4.153885e+03
  3.488956e+01    4.202841e+03
  3.491244e+01    4.244531e+03
  3.493533e+01    4.289561e+03
  3.495821e+01    4.332996e+03
  3.498110e+01    4.381552e+03
  3.500398e+01    4.426998e+03
  3.502687e+01    4.468431e+03
  3.504975e+01    4.509951e+03
  3.507264e+01    4.549043e+03
  3.509552e+01    4.569488e+03
  3.511841e+01    4.589693e+03
  3.514130e+01    4.603888e+03
  3.516418e+01    4.622825e+03
  3.518707e+01    4.633955e+03
  3.520995e+01    4.642970e+03
  3.523284e+01    4.655022e+03
  3.525572e+01    4.662359e+03
  3.527861e+01    4.665780e+03
  3.530149e+01    4.673243e+03
  3.532438e+01    4.680687e+03
  3.534726e+01    4.688440e+03
  3.537015e+01    4.695181e+03
  3.539303e+01    4.697999e+03
  3.541592e+01    4.698570e+03
  3.543880e+01    4.696823e+03
  3.546169e+01    4.697602e+03
  3.548458e+01    4.705156e+03
  3.550746e+01    4.712205e+03
  3.553035e+01    4.721958e+03
  3.555323e+01    4.727391e+03
  3.557612e+01    4.735792e+03
  3.559900e+01    4.741642e+03
  3.562189e+01    4.753002e+03
  3.564477e+01    4.764518e+03
  3.566766e+01    4.774837e+03
  3.569054e+01    4.785275e+03
  3.571343e+01    4.795493e+03
  3.573631e+01    4.807251e+03
  3.575920e+01    4.814127e+03
  3.578209e+01    4.818503e+03
  3.580497e+01    4.830287e+03
  3.582786e+01    4.839545e+03
  3.585074e+01    4.852390e+03
  3.587363e+01    4.863675e+03
  3.589651e+01    4.873108e+03
  3.591940e+01    4.885830e+03
  3.594228e+01    4.893904e+03
  3.596517e+01    4.900178e+03
  3.598805e+01    4.913134e+03
  3.601094e+01    4.929666e+03
  3.603382e+01    4.943007e+03
  3.605671e+01    4.951401e+03
  3.607960e+01    4.964913e+03
  3.610248e+01    4.977866e+03
  3.612537e+01    4.988576e+03
  3.614825e+01    5.005653e+03
  3.617114e+01    5.021072e+03
  3.619402e+01    5.038158e+03
  3.621691e+01    5.058529e+03
  3.623979e+01    5.074718e+03
  3.626268e+01    5.089632e+03
  3.628556e+01    5.104733e+03
  3.630845e+01    5.127679e+03
  3.633133e+01    5.157233e+03
  3.635422e+01    5.184116e+03
  3.637710e+01    5.209200e+03
  3.639999e+01    5.250464e+03
  3.642288e+01    5.316990e+03
  3.644576e+01    5.413676e+03
  3.646865e+01    5.579758e+03
  3.649153e+01    5.865096e+03
  3.651442e+01    6.278772e+03
  3.653730e+01    6.796014e+03
  3.656019e+01    7.271085e+03
  3.658307e+01    7.517882e+03
  3.660596e+01    7.431062e+03
  3.662884e+01    7.030221e+03
  3.665173e+01    6.482506e+03
  3.667461e+01    6.022236e+03
  3.669750e+01    5.740280e+03
  3.672039e+01    5.593479e+03
  3.674327e+01    5.520488e+03
  3.676616e+01    5.486855e+03
  3.678904e+01    5.480132e+03
  3.681193e+01    5.485401e+03
  3.683481e+01    5.493214e+03
  3.685770e+01    5.495411e+03
  3.688058e+01    5.503374e+03
  3.690347e+01    5.506518e+03
  3.692635e+01    5.510685e+03
  3.694924e+01    5.511077e+03
  3.697212e+01    5.516387e+03
  3.699501e+01    5.528316e+03
  3.701790e+01    5.530571e+03
  3.704078e+01    5.537356e+03
  3.706367e+01    5.545606e+03
  3.708655e+01    5.549800e+03
  3.710944e+01    5.554836e+03
  3.713232e+01    5.556515e+03
  3.715521e+01    5.571028e+03
  3.717809e+01    5.585761e+03
  3.720098e+01    5.596050e+03
  3.722386e+01    5.604011e+03
  3.724675e+01    5.609732e+03
  3.726963e+01    5.619698e+03
  3.729252e+01    5.628116e+03
  3.731541e+01    5.639780e+03
  3.733829e+01    5.655042e+03
  3.736118e+01    5.676858e+03
  3.738406e+01    5.699269e+03
  3.740695e+01    5.718690e+03
  3.742983e+01    5.741219e+03
  3.745272e+01    5.769123e+03
  3.747560e+01    5.803905e+03
  3.749849e+01    5.841170e+03
  3.752137e+01    5.901102e+03
  3.754426e+01    5.978828e+03
  3.756714e+01    6.073719e+03
  3.759003e+01    6.203540e+03
  3.761291e+01    6.389167e+03
  3.763580e+01    6.677241e+03
  3.765869e+01    7.155266e+03
  3.768157e+01    7.983023e+03
  3.770446e+01    9.481166e+03
  3.772734e+01    1.213594e+04
  3.775023e+01    1.637990e+04
  3.777311e+01    2.201116e+04
  3.779600e+01    2.774234e+04
  3.781888e+01    3.144173e+04
  3.784177e+01    3.143805e+04
  3.786465e+01    2.745760e+04
  3.788754e+01    2.114744e+04
  3.791042e+01    1.513303e+04
  3.793331e+01    1.102520e+04
  3.795620e+01    8.747196e+03
  3.797908e+01    7.567541e+03
  3.800197e+01    6.936054e+03
  3.802485e+01    6.560226e+03
  3.804774e+01    6.325331e+03
  3.807062e+01    6.176930e+03
  3.809351e+01    6.066049e+03
  3.811639e+01    5.983094e+03
  3.813928e+01    5.914622e+03
  3.816216e+01    5.863791e+03
  3.818505e+01    5.821845e+03
  3.820793e+01    5.793438e+03
  3.823082e+01    5.763535e+03
  3.825371e+01    5.739075e+03
  3.827659e+01    5.719549e+03
  3.829948e+01    5.701535e+03
  3.832236e+01    5.692979e+03
  3.834525e+01    5.676169e+03
  3.836813e+01    5.661894e+03
  3.839102e+01    5.648686e+03
  3.841390e+01    5.649378e+03
  3.843679e+01    5.648180e+03
  3.845967e+01    5.642332e+03
  3.848256e+01    5.633077e+03
  3.850544e+01    5.630053e+03
  3.852833e+01    5.628342e+03
  3.855121e+01    5.624221e+03
  3.857410e+01    5.623134e+03
  3.859699e+01    5.613327e+03
  3.861987e+01    5.608812e+03
  3.864276e+01    5.611444e+03
  3.866564e+01    5.612941e+03
  3.868853e+01    5.608382e+03
  3.871141e+01    5.601371e+03
  3.873430e+01    5.601071e+03
  3.875718e+01    5.601459e+03
  3.878007e+01    5.608585e+03
  3.880295e+01    5.600943e+03
  3.882584e+01    5.605956e+03
  3.884872e+01    5.607920e+03
  3.887161e+01    5.623325e+03
  3.889450e+01    5.660089e+03
  3.891738e+01    5.729427e+03
  3.894027e+01    5.839209e+03
  3.896315e+01    6.010669e+03
  3.898604e+01    6.235268e+03
  3.900892e+01    6.445037e+03
  3.903181e+01    6.557184e+03
  3.905469e+01    6.514855e+03
  3.907758e+01    6.313304e+03
  3.910046e+01    6.044522e+03
  3.912335e+01    5.805739e+03
  3.914623e+01    5.651965e+03
  3.916912e+01    5.563730e+03
  3.919201e+01    5.515174e+03
  3.921489e+01    5.475845e+03
  3.923778e+01    5.447397e+03
  3.926066e+01    5.425676e+03
  3.928355e+01    5.405576e+03
  3.930643e+01    5.381647e+03
  3.932932e+01    5.367417e+03
  3.935220e+01    5.361365e+03
  3.937509e+01    5.345258e+03
  3.939797e+01    5.325236e+03
  3.942086e+01    5.312626e+03
  3.944374e+01    5.298052e+03
  3.946663e+01    5.281105e+03
  3.948951e+01    5.264933e+03
  3.951240e+01    5.255801e+03
  3.953529e+01    5.240988e+03
  3.955817e+01    5.231267e+03
  3.958106e+01    5.218095e+03
  3.960394e+01    5.208134e+03
  3.962683e+01    5.197115e+03
  3.964971e+01    5.188060e+03
  3.967260e+01    5.182074e+03
  3.969548e+01    5.167337e+03
  3.971837e+01    5.146674e+03
  3.974125e+01    5.131887e+03
  3.976414e+01    5.116669e+03
  3.978702e+01    5.101539e+03
  3.980991e+01    5.088064e+03
  3.983280e+01    5.071274e+03
  3.985568e+01    5.059935e+03
  3.987857e+01    5.049117e+03
  3.990145e+01    5.040200e+03
  3.992434e+01    5.019198e+03
  3.994722e+01    5.001574e+03
  3.997011e+01    4.987457e+03
  3.999299e+01    4.975969e+03
  4.001588e+01    4.968121e+03
  4.003876e+01    4.954616e+03
  4.006165e+01    4.951775e+03
  4.008453e+01    4.960814e+03
  4.010742e+01    4.977451e+03
  4.013031e+01    5.003234e+03
  4.015319e+01    5.048708e+03
  4.017608e+01    5.100013e+03
  4.019896e+01    5.132726e+03
  4.022185e+01    5.130720e+03
  4.024473e+01    5.090424e+03
  4.026762e+01    5.023518e+03
  4.029050e+01    4.947304e+03
  4.031339e+01    4.886043e+03
  4.033627e+01    4.849921e+03
  4.035916e+01    4.829325e+03
  4.038204e+01    4.819496e+03
  4.040493e+01    4.804723e+03
  4.042782e+01    4.787508e+03
  4.045070e+01    4.776851e+03
  4.047359e+01    4.765163e+03
  4.049647e+01    4.754999e+03
  4.051936e+01    4.749376e+03
  4.054224e+01    4.735365e+03
  4.056513e+01    4.730659e+03
  4.058801e+01    4.722138e+03
  4.061090e+01    4.711925e+03
  4.063378e+01    4.712582e+03
  4.065667e+01    4.709703e+03
  4.067955e+01    4.696787e+03
  4.070244e+01    4.694229e+03
  4.072532e+01    4.691441e+03
  4.074821e+01    4.682078e+03
  4.077110e+01    4.676918e+03
  4.079398e+01    4.670027e+03
  4.081687e+01    4.659352e+03
  4.083975e+01    4.654954e+03
  4.086264e+01    4.651830e+03
  4.088552e+01    4.648434e+03
  4.090841e+01    4.639796e+03
  4.093129e+01    4.630413e+03
  4.095418e+01    4.634250e+03
  4.097706e+01    4.631419e+03
  4.099995e+01    4.629559e+03
  4.102283e+01    4.629934e+03
  4.104572e+01    4.624042e+03
  4.106861e+01    4.625984e+03
  4.109149e+01    4.634177e+03
  4.111438e+01    4.647686e+03
  4.113726e+01    4.659076e+03
  4.116015e+01    4.680006e+03
  4.118303e+01    4.713989e+03
  4.120592e+01    4.781810e+03
  4.122880e+01    4.904812e+03
  4.125169e+01    5.129157e+03
  4.127457e+01    5.508086e+03
  4.129746e+01    6.072389e+03
  4.132034e+01    6.710202e+03
  4.134323e+01    7.211458e+03
  4.136612e+01    7.366386e+03
  4.138900e+01    7.081092e+03
  4.141189e+01    6.471758e+03
  4.143477e+01    5.783891e+03
  4.145766e+01    5.261093e+03
  4.148054e+01    4.960436e+03
  4.150343e+01    4.803762e+03
  4.152631e+01    4.718896e+03
  4.154920e+01    4.676671e+03
  4.157208e+01    4.648570e+03
  4.159497e+01    4.632788e+03
  4.161785e+01    4.620802e+03
  4.164074e+01    4.618006e+03
  4.166362e+01    4.614846e+03
  4.168651e+01    4.612418e+03
  4.170940e+01    4.607071e+03
  4.173228e+01    4.602008e+03
  4.175517e+01    4.597078e+03
  4.177805e+01    4.585462e+03
  4.180094e+01    4.573141e+03
  4.182382e+01    4.564421e+03
  4.184671e+01    4.554070e+03
  4.186959e+01    4.548396e+03
  4.189248e+01    4.536273e+03
  4.191536e+01    4.526466e+03
  4.193825e+01    4.519430e+03
  4.196113e+01    4.513703e+03
  4.198402e+01    4.509496e+03
  4.200691e+01    4.508328e+03
  4.202979e+01    4.503992e+03
  4.205268e+01    4.510067e+03
  4.207556e+01    4.514125e+03
  4.209845e+01    4.511147e+03
  4.212133e+01    4.508667e+03
  4.214422e+01    4.511181e+03
  4.216710e+01    4.510865e+03
  4.218999e+01    4.515671e+03
  4.221287e+01    4.521990e+03
  4.223576e+01    4.524640e+03
  4.225864e+01    4.536570e+03
  4.228153e+01    4.541700e+03
  4.230442e+01    4.549135e+03
  4.232730e+01    4.557172e+03
  4.235019e+01    4.582805e+03
  4.237307e+01    4.629675e+03
  4.239596e+01    4.702124e+03
  4.241884e+01    4.812716e+03
  4.244173e+01    4.943226e+03
  4.246461e+01    5.034250e+03
  4.248750e+01    5.046651e+03
  4.251038e+01    4.971858e+03
  4.253327e+01    4.828871e+03
  4.255615e+01    4.658206e+03
  4.257904e+01    4.527241e+03
  4.260192e+01    4.453033e+03
  4.262481e+01    4.412981e+03
  4.264770e+01    4.381535e+03
  4.267058e+01    4.363632e+03
  4.269347e+01    4.348175e+03
  4.271635e+01    4.337944e+03
  4.273924e+01    4.332875e+03
  4.276212e+01    4.324005e+03
  4.278501e+01    4.309663e+03
  4.280789e+01    4.305909e+03
  4.283078e+01    4.292322e+03
  4.285366e+01    4.289845e+03
  4.287655e+01    4.283306e+03
  4.289943e+01    4.276231e+03
  4.292232e+01    4.267778e+03
  4.294521e+01    4.276105e+03
  4.296809e+01    4.270227e+03
  4.299098e+01    4.259044e+03
  4.301386e+01    4.252259e+03
  4.303675e+01    4.249942e+03
  4.305963e+01    4.249697e+03
  4.308252e+01    4.242956e+03
  4.310540e+01    4.245386e+03
  4.312829e+01    4.242040e+03
  4.315117e+01    4.235774e+03
  4.317406e+01    4.234442e+03
  4.319694e+01    4.248249e+03
  4.321983e+01    4.250410e+03
  4.324272e+01    4.253159e+03
  4.326560e+01    4.254800e+03
  4.328849e+01    4.252919e+03
  4.331137e+01    4.260240e+03
  4.333426e+01    4.275244e+03
  4.335714e+01    4.294838e+03
  4.338003e+01    4.306218e+03
  4.340291e+01    4.334012e+03
  4.342580e+01    4.393769e+03
  4.344868e+01    4.484014e+03
  4.347157e+01    4.668733e+03
  4.349445e+01    4.982810e+03
  4.351734e+01    5.445992e+03
  4.354022e+01    5.965567e+03
  4.356311e+01    6.383403e+03
  4.358600e+01    6.504139e+03
  4.360888e+01    6.276424e+03
  4.363177e+01    5.784118e+03
  4.365465e+01    5.212618e+03
  4.367754e+01    4.773688e+03
  4.370042e+01    4.523984e+03
  4.372331e+01    4.393958e+03
  4.374619e+01    4.334745e+03
  4.376908e+01    4.309678e+03
  4.379196e+01    4.285246e+03
  4.381485e+01    4.279403e+03
  4.383773e+01    4.283082e+03
  4.386062e+01    4.290042e+03
  4.388351e+01    4.299695e+03
  4.390639e+01    4.316680e+03
  4.392928e+01    4.335502e+03
  4.395216e+01    4.361835e+03
  4.397505e+01    4.394317e+03
  4.399793e+01    4.442324e+03
  4.402082e+01    4.513714e+03
  4.404370e+01    4.626600e+03
  4.406659e+01    4.769223e+03
  4.408947e+01    4.979161e+03
  4.411236e+01    5.292401e+03
  4.413524e+01    5.730993e+03
  4.415813e+01    6.342014e+03
  4.418102e+01    7.190082e+03
  4.420390e+01    8.242947e+03
  4.422679e+01    9.348521e+03
  4.424967e+01    1.014658e+04
  4.427256e+01    1.020916e+04
  4.429544e+01    9.477524e+03
  4.431833e+01    8.352054e+03
  4.434121e+01    7.250104e+03
  4.436410e+01    6.404524e+03
  4.438698e+01    5.809916e+03
  4.440987e+01    5.422985e+03
  4.443275e+01    5.187039e+03
  4.445564e+01    5.078014e+03
  4.447853e+01    5.083496e+03
  4.450141e+01    5.215386e+03
  4.452430e+01    5.564982e+03
  4.454718e+01    6.261383e+03
  4.457007e+01    7.492547e+03
  4.459295e+01    9.344775e+03
  4.461584e+01    1.146719e+04
  4.463872e+01    1.310076e+04
  4.466161e+01    1.358552e+04
  4.468449e+01    1.268484e+04
  4.470738e+01    1.067196e+04
  4.473026e+01    8.350249e+03
  4.475315e+01    6.564635e+03
  4.477603e+01    5.521829e+03
  4.479892e+01    4.975287e+03
  4.482181e+01    4.683373e+03
  4.484469e+01    4.504473e+03
  4.486758e+01    4.387854e+03
  4.489046e+01    4.313370e+03
  4.491335e+01    4.262294e+03
  4.493623e+01    4.225418e+03
  4.495912e+01    4.194899e+03
  4.498200e+01    4.172827e+03
  4.500489e+01    4.146274e+03
  4.502777e+01    4.132338e+03
  4.505066e+01    4.119317e+03
  4.507354e+01    4.108478e+03
  4.509643e+01    4.105203e+03
  4.511932e+01    4.092795e+03
  4.514220e+01    4.090703e+03
  4.516509e+01    4.083572e+03
  4.518797e+01    4.080746e+03
  4.521086e+01    4.078361e+03
  4.523374e+01    4.067721e+03
  4.525663e+01    4.059434e+03
  4.527951e+01    4.053485e+03
  4.530240e+01    4.052897e+03
  4.532528e+01    4.048610e+03
  4.534817e+01    4.045993e+03
  4.537105e+01    4.048946e+03
  4.539394e+01    4.051904e+03
  4.541683e+01    4.051197e+03
  4.543971e+01    4.053748e+03
  4.546260e+01    4.058078e+03
  4.548548e+01    4.073888e+03
  4.550837e+01    4.099895e+03
  4.553125e+01    4.137274e+03
  4.555414e+01    4.202598e+03
  4.557702e+01    4.317768e+03
  4.559991e+01    4.521315e+03
  4.562279e+01    4.858564e+03
  4.564568e+01    5.387393e+03
  4.566856e+01    6.001141e+03
  4.569145e+01    6.503021e+03
  4.571433e+01    6.681064e+03
  4.573722e+01    6.458273e+03
  4.576011e+01    5.901670e+03
  4.578299e+01    5.233784e+03
  4.580588e+01    4.701262e+03
  4.582876e+01    4.379466e+03
  4.585165e+01    4.211443e+03
  4.587453e+01    4.117604e+03
  4.589742e+01    4.062717e+03
  4.592030e+01    4.028712e+03
  4.594319e+01    4.011267e+03
  4.596607e+01    3.993007e+03
  4.598896e+01    3.972799e+03
  4.601184e+01    3.962802e+03
  4.603473e+01    3.957231e+03
  4.605762e+01    3.957674e+03
  4.608050e+01    3.950442e+03
  4.610339e+01    3.950952e+03
  4.612627e+01    3.951894e+03
  4.614916e+01    3.940156e+03
  4.617204e+01    3.943347e+03
  4.619493e+01    3.951226e+03
  4.621781e+01    3.947520e+03
  4.624070e+01    3.945709e+03
  4.626358e+01    3.947436e+03
  4.628647e+01    3.933324e+03
  4.630935e+01    3.925633e+03
  4.633224e+01    3.921288e+03
  4.635513e+01    3.910490e+03
  4.637801e+01    3.894155e+03
  4.640090e+01    3.876445e+03
  4.642378e+01    3.857025e+03
  4.644667e+01    3.847341e+03
  4.646955e+01    3.837884e+03
  4.649244e+01    3.840682e+03
  4.651532e+01    3.836232e+03
  4.653821e+01    3.827885e+03
  4.656109e+01    3.832494e+03
  4.658398e+01    3.842996e+03
  4.660686e+01    3.867280e+03
  4.662975e+01    3.920078e+03
  4.665263e+01    4.007290e+03
  4.667552e+01    4.150961e+03
  4.669841e+01    4.316873e+03
  4.672129e+01    4.469479e+03
  4.674418e+01    4.542712e+03
  4.676706e+01    4.498332e+03
  4.678995e+01    4.361864e+03
  4.681283e+01    4.171250e+03
  4.683572e+01    4.018195e+03
  4.685860e+01    3.910396e+03
  4.688149e+01    3.854186e+03
  4.690437e+01    3.837386e+03
  4.692726e+01    3.817548e+03
  4.695014e+01    3.800976e+03
  4.697303e+01    3.789986e+03
  4.699592e+01    3.787407e+03
  4.701880e+01    3.780048e+03
  4.704169e+01    3.777703e+03
  4.706457e+01    3.772539e+03
  4.708746e+01    3.770662e+03
  4.711034e+01    3.758568e+03
  4.713323e+01    3.755059e+03
  4.715611e+01    3.741234e+03
  4.717900e+01    3.726555e+03
  4.720188e+01    3.710183e+03
  4.722477e+01    3.701917e+03
  4.724765e+01    3.696704e+03
  4.727054e+01    3.686651e+03
  4.729343e+01    3.676590e+03
  4.731631e+01    3.669401e+03
  4.733920e+01    3.657875e+03
  4.736208e+01    3.654794e+03
  4.738497e+01    3.666662e+03
  4.740785e+01    3.676868e+03
  4.743074e+01    3.667848e+03
  4.745362e+01    3.661664e+03
  4.747651e+01    3.672615e+03
  4.749939e+01    3.681331e+03
  4.752228e+01    3.684115e+03
  4.754516e+01    3.688093e+03
  4.756805e+01    3.652583e+03
  4.759094e+01    3.701356e+03
  4.761382e+01    3.741825e+03
  4.763671e+01    3.767107e+03
  4.765959e+01    3.803756e+03
  4.768248e+01    3.883763e+03
  4.770536e+01    3.989738e+03
  4.772825e+01    4.048251e+03
  4.775113e+01    4.136270e+03
  4.777402e+01    4.040461e+03
  4.779690e+01    3.935255e+03
  4.781979e+01    3.678996e+03
  4.784267e+01    3.431614e+03
  4.786556e+01    2.887639e+03
  4.788844e+01    1.398576e+03