File: Output/ROCK_XRD/WAM39B_integrated/uholder_perp_xrd_000001_integrated.dat
# == pyFAI calibration ==
# Distance Sample to Detector: 0.261615 m
# PONI: 2.023e-01, 2.348e-01 m
# Rotations: -0.026380 0.002005 0.000000 rad
#
# == Fit2d calibration ==
# Distance Sample-beamCenter: 261.707 mm
# Center: x=6119.331, y=5134.776 pix
# Tilt: 1.516 deg  TiltPlanRot: 4.347 deg
#
# Detector Rayonix SX165	 PixelSize= 3.950e-05, 3.950e-05 m
#    Detector has a mask: True
#    Detector has a dark current: False
#    detector has a flat field: False
#
# Wavelength: 1.12713e-10 m
# Mask applied: from detector
# Dark current applied: False
# Flat field applied: False
# Polarization factor: None
# Normalization factor: 1.0
# --> ROCK\\WAM39B_integrated\uholder_perp_xrd_000001_integrated.dat
#       2th_deg             I
  2.502596e+01    1.856119e+03
  2.504885e+01    4.863374e+03
  2.507173e+01    6.546916e+03
  2.509462e+01    6.965665e+03
  2.511750e+01    7.684823e+03
  2.514039e+01    8.067699e+03
  2.516327e+01    8.147214e+03
  2.518616e+01    8.173049e+03
  2.520905e+01    8.195188e+03
  2.523193e+01    8.134923e+03
  2.525482e+01    8.195347e+03
  2.527770e+01    8.413266e+03
  2.530059e+01    8.432734e+03
  2.532347e+01    8.391072e+03
  2.534636e+01    8.351909e+03
  2.536924e+01    8.337222e+03
  2.539213e+01    8.346569e+03
  2.541501e+01    8.346614e+03
  2.543790e+01    8.349529e+03
  2.546078e+01    8.362753e+03
  2.548367e+01    8.326546e+03
  2.550656e+01    8.221463e+03
  2.552944e+01    8.145262e+03
  2.555233e+01    8.200220e+03
  2.557521e+01    8.213586e+03
  2.559810e+01    8.170158e+03
  2.562098e+01    8.157614e+03
  2.564387e+01    8.150931e+03
  2.566675e+01    8.147906e+03
  2.568964e+01    8.125722e+03
  2.571252e+01    8.120276e+03
  2.573541e+01    8.141831e+03
  2.575829e+01    8.133028e+03
  2.578118e+01    8.097685e+03
  2.580407e+01    8.092486e+03
  2.582695e+01    8.084003e+03
  2.584984e+01    8.048134e+03
  2.587272e+01    8.008856e+03
  2.589561e+01    7.990046e+03
  2.591849e+01    7.918415e+03
  2.594138e+01    7.843206e+03
  2.596426e+01    7.793103e+03
  2.598715e+01    7.711990e+03
  2.601003e+01    7.644425e+03
  2.603292e+01    7.554163e+03
  2.605580e+01    7.470055e+03
  2.607869e+01    7.397655e+03
  2.610157e+01    7.309265e+03
  2.612446e+01    7.213374e+03
  2.614735e+01    7.116296e+03
  2.617023e+01    7.016604e+03
  2.619312e+01    6.920542e+03
  2.621600e+01    6.838730e+03
  2.623889e+01    6.748952e+03
  2.626177e+01    6.693202e+03
  2.628466e+01    6.649021e+03
  2.630754e+01    6.628863e+03
  2.633043e+01    6.654673e+03
  2.635331e+01    6.766787e+03
  2.637620e+01    7.000459e+03
  2.639908e+01    7.387979e+03
  2.642197e+01    7.964553e+03
  2.644486e+01    8.675294e+03
  2.646774e+01    9.381785e+03
  2.649063e+01    9.824069e+03
  2.651351e+01    9.955618e+03
  2.653640e+01    9.838672e+03
  2.655928e+01    9.736092e+03
  2.658217e+01    9.938885e+03
  2.660505e+01    1.060573e+04
  2.662794e+01    1.163548e+04
  2.665082e+01    1.265827e+04
  2.667371e+01    1.322339e+04
  2.669659e+01    1.302513e+04
  2.671948e+01    1.199404e+04
  2.674237e+01    1.038097e+04
  2.676525e+01    8.816664e+03
  2.678814e+01    7.628210e+03
  2.681102e+01    6.828179e+03
  2.683391e+01    6.306529e+03
  2.685679e+01    5.977639e+03
  2.687968e+01    5.768486e+03
  2.690256e+01    5.603802e+03
  2.692545e+01    5.490138e+03
  2.694833e+01    5.405462e+03
  2.697122e+01    5.348349e+03
  2.699410e+01    5.305195e+03
  2.701699e+01    5.273936e+03
  2.703988e+01    5.232771e+03
  2.706276e+01    5.199566e+03
  2.708565e+01    5.176261e+03
  2.710853e+01    5.151502e+03
  2.713142e+01    5.125287e+03
  2.715430e+01    5.105732e+03
  2.717719e+01    5.087134e+03
  2.720007e+01    5.064310e+03
  2.722296e+01    5.043790e+03
  2.724584e+01    5.022151e+03
  2.726873e+01    5.013049e+03
  2.729161e+01    4.996006e+03
  2.731450e+01    4.980320e+03
  2.733738e+01    4.959452e+03
  2.736027e+01    4.938817e+03
  2.738316e+01    4.924961e+03
  2.740604e+01    4.912879e+03
  2.742893e+01    4.900936e+03
  2.745181e+01    4.892269e+03
  2.747470e+01    4.879482e+03
  2.749758e+01    4.867042e+03
  2.752047e+01    4.858881e+03
  2.754335e+01    4.851002e+03
  2.756624e+01    4.840934e+03
  2.758912e+01    4.830393e+03
  2.761201e+01    4.814989e+03
  2.763489e+01    4.804122e+03
  2.765778e+01    4.804372e+03
  2.768067e+01    4.803456e+03
  2.770355e+01    4.801354e+03
  2.772644e+01    4.790815e+03
  2.774932e+01    4.785327e+03
  2.777221e+01    4.787551e+03
  2.779509e+01    4.791430e+03
  2.781798e+01    4.798909e+03
  2.784086e+01    4.802767e+03
  2.786375e+01    4.813064e+03
  2.788663e+01    4.828647e+03
  2.790952e+01    4.849585e+03
  2.793240e+01    4.878829e+03
  2.795529e+01    4.914694e+03
  2.797818e+01    4.975692e+03
  2.800106e+01    5.070747e+03
  2.802395e+01    5.219611e+03
  2.804683e+01    5.448402e+03
  2.806972e+01    5.753549e+03
  2.809260e+01    6.093623e+03
  2.811549e+01    6.374472e+03
  2.813837e+01    6.506276e+03
  2.816126e+01    6.428956e+03
  2.818414e+01    6.168359e+03
  2.820703e+01    5.821621e+03
  2.822991e+01    5.492595e+03
  2.825280e+01    5.243276e+03
  2.827568e+01    5.075879e+03
  2.829857e+01    4.958200e+03
  2.832146e+01    4.864718e+03
  2.834434e+01    4.788147e+03
  2.836723e+01    4.727030e+03
  2.839011e+01    4.673059e+03
  2.841300e+01    4.623772e+03
  2.843588e+01    4.590590e+03
  2.845877e+01    4.554010e+03
  2.848165e+01    4.518058e+03
  2.850454e+01    4.489081e+03
  2.852742e+01    4.464895e+03
  2.855031e+01    4.448396e+03
  2.857319e+01    4.424149e+03
  2.859608e+01    4.404494e+03
  2.861897e+01    4.385450e+03
  2.864185e+01    4.363484e+03
  2.866474e+01    4.345671e+03
  2.868762e+01    4.323925e+03
  2.871051e+01    4.312787e+03
  2.873339e+01    4.301979e+03
  2.875628e+01    4.290179e+03
  2.877916e+01    4.276543e+03
  2.880205e+01    4.260486e+03
  2.882493e+01    4.251581e+03
  2.884782e+01    4.245688e+03
  2.887070e+01    4.233176e+03
  2.889359e+01    4.223138e+03
  2.891648e+01    4.216254e+03
  2.893936e+01    4.209009e+03
  2.896225e+01    4.201964e+03
  2.898513e+01    4.195202e+03
  2.900802e+01    4.192544e+03
  2.903090e+01    4.187391e+03
  2.905379e+01    4.184204e+03
  2.907667e+01    4.188057e+03
  2.909956e+01    4.187064e+03
  2.912244e+01    4.185733e+03
  2.914533e+01    4.185735e+03
  2.916821e+01    4.190764e+03
  2.919110e+01    4.186761e+03
  2.921398e+01    4.176615e+03
  2.923687e+01    4.167639e+03
  2.925976e+01    4.152083e+03
  2.928264e+01    4.132122e+03
  2.930553e+01    4.116334e+03
  2.932841e+01    4.099302e+03
  2.935130e+01    4.082440e+03
  2.937418e+01    4.064485e+03
  2.939707e+01    4.054744e+03
  2.941995e+01    4.041210e+03
  2.944284e+01    4.028991e+03
  2.946572e+01    4.023895e+03
  2.948861e+01    4.013294e+03
  2.951149e+01    4.006823e+03
  2.953438e+01    4.014156e+03
  2.955727e+01    4.031380e+03
  2.958015e+01    4.066151e+03
  2.960304e+01    4.132200e+03
  2.962592e+01    4.232434e+03
  2.964881e+01    4.347416e+03
  2.967169e+01    4.445583e+03
  2.969458e+01    4.484230e+03
  2.971746e+01    4.447986e+03
  2.974035e+01    4.343835e+03
  2.976323e+01    4.203674e+03
  2.978612e+01    4.073833e+03
  2.980900e+01    3.979467e+03
  2.983189e+01    3.915594e+03
  2.985478e+01    3.878835e+03
  2.987766e+01    3.852746e+03
  2.990055e+01    3.835869e+03
  2.992343e+01    3.821279e+03
  2.994632e+01    3.803125e+03
  2.996920e+01    3.792155e+03
  2.999209e+01    3.784431e+03
  3.001497e+01    3.780070e+03
  3.003786e+01    3.773741e+03
  3.006074e+01    3.763783e+03
  3.008363e+01    3.756183e+03
  3.010651e+01    3.750150e+03
  3.012940e+01    3.743656e+03
  3.015228e+01    3.733696e+03
  3.017517e+01    3.727689e+03
  3.019806e+01    3.727211e+03
  3.022094e+01    3.721556e+03
  3.024383e+01    3.715037e+03
  3.026671e+01    3.706947e+03
  3.028960e+01    3.702778e+03
  3.031248e+01    3.700140e+03
  3.033537e+01    3.701116e+03
  3.035825e+01    3.697391e+03
  3.038114e+01    3.693640e+03
  3.040402e+01    3.696951e+03
  3.042691e+01    3.696413e+03
  3.044979e+01    3.699924e+03
  3.047268e+01    3.709741e+03
  3.049557e+01    3.721321e+03
  3.051845e+01    3.734749e+03
  3.054134e+01    3.748966e+03
  3.056422e+01    3.771889e+03
  3.058711e+01    3.801592e+03
  3.060999e+01    3.846265e+03
  3.063288e+01    3.916744e+03
  3.065576e+01    4.017250e+03
  3.067865e+01    4.161447e+03
  3.070153e+01    4.377093e+03
  3.072442e+01    4.695056e+03
  3.074730e+01    5.174237e+03
  3.077019e+01    5.868250e+03
  3.079308e+01    6.846165e+03
  3.081596e+01    8.149589e+03
  3.083885e+01    9.739446e+03
  3.086173e+01    1.136140e+04
  3.088462e+01    1.266807e+04
  3.090750e+01    1.338745e+04
  3.093039e+01    1.328497e+04
  3.095327e+01    1.229323e+04
  3.097616e+01    1.075736e+04
  3.099904e+01    9.069969e+03
  3.102193e+01    7.580996e+03
  3.104481e+01    6.709595e+03
  3.106770e+01    6.354832e+03
  3.109059e+01    6.495275e+03
  3.111347e+01    7.110661e+03
  3.113636e+01    8.002268e+03
  3.115924e+01    8.800322e+03
  3.118213e+01    9.126816e+03
  3.120501e+01    8.773547e+03
  3.122790e+01    7.819163e+03
  3.125078e+01    6.570109e+03
  3.127367e+01    5.417224e+03
  3.129655e+01    4.608544e+03
  3.131944e+01    4.131284e+03
  3.134232e+01    3.862585e+03
  3.136521e+01    3.704969e+03
  3.138809e+01    3.601584e+03
  3.141098e+01    3.529509e+03
  3.143387e+01    3.478141e+03
  3.145675e+01    3.438982e+03
  3.147964e+01    3.407186e+03
  3.150252e+01    3.382863e+03
  3.152541e+01    3.368060e+03
  3.154829e+01    3.344874e+03
  3.157118e+01    3.323702e+03
  3.159406e+01    3.309973e+03
  3.161695e+01    3.299878e+03
  3.163983e+01    3.283929e+03
  3.166272e+01    3.270565e+03
  3.168560e+01    3.261713e+03
  3.170849e+01    3.254203e+03
  3.173138e+01    3.244738e+03
  3.175426e+01    3.230860e+03
  3.177715e+01    3.220251e+03
  3.180003e+01    3.215858e+03
  3.182292e+01    3.209630e+03
  3.184580e+01    3.200315e+03
  3.186869e+01    3.194116e+03
  3.189157e+01    3.188220e+03
  3.191446e+01    3.183880e+03
  3.193734e+01    3.178913e+03
  3.196023e+01    3.172947e+03
  3.198311e+01    3.165502e+03
  3.200600e+01    3.158142e+03
  3.202889e+01    3.153930e+03
  3.205177e+01    3.151547e+03
  3.207466e+01    3.145306e+03
  3.209754e+01    3.136626e+03
  3.212043e+01    3.132031e+03
  3.214331e+01    3.132132e+03
  3.216620e+01    3.130978e+03
  3.218908e+01    3.126745e+03
  3.221197e+01    3.127236e+03
  3.223485e+01    3.127112e+03
  3.225774e+01    3.120620e+03
  3.228062e+01    3.116685e+03
  3.230351e+01    3.108529e+03
  3.232639e+01    3.103481e+03
  3.234928e+01    3.097614e+03
  3.237217e+01    3.090342e+03
  3.239505e+01    3.080710e+03
  3.241794e+01    3.080094e+03
  3.244082e+01    3.080323e+03
  3.246371e+01    3.087398e+03
  3.248659e+01    3.113471e+03
  3.250948e+01    3.160813e+03
  3.253236e+01    3.244676e+03
  3.255525e+01    3.352196e+03
  3.257813e+01    3.453768e+03
  3.260102e+01    3.512358e+03
  3.262390e+01    3.502145e+03
  3.264679e+01    3.428545e+03
  3.266968e+01    3.313976e+03
  3.269256e+01    3.194448e+03
  3.271545e+01    3.102807e+03
  3.273833e+01    3.045575e+03
  3.276122e+01    3.011985e+03
  3.278410e+01    2.999667e+03
  3.280699e+01    2.989522e+03
  3.282987e+01    2.982324e+03
  3.285276e+01    2.980070e+03
  3.287564e+01    2.977846e+03
  3.289853e+01    2.971519e+03
  3.292141e+01    2.962749e+03
  3.294430e+01    2.959720e+03
  3.296719e+01    2.953763e+03
  3.299007e+01    2.942148e+03
  3.301296e+01    2.934196e+03
  3.303584e+01    2.925479e+03
  3.305873e+01    2.907792e+03
  3.308161e+01    2.893104e+03
  3.310450e+01    2.883085e+03
  3.312738e+01    2.872193e+03
  3.315027e+01    2.861014e+03
  3.317315e+01    2.851429e+03
  3.319604e+01    2.842904e+03
  3.321892e+01    2.836887e+03
  3.324181e+01    2.831408e+03
  3.326469e+01    2.827031e+03
  3.328758e+01    2.827013e+03
  3.331047e+01    2.820475e+03
  3.333335e+01    2.813587e+03
  3.335624e+01    2.801771e+03
  3.337912e+01    2.797755e+03
  3.340201e+01    2.795774e+03
  3.342489e+01    2.795346e+03
  3.344778e+01    2.795216e+03
  3.347066e+01    2.789673e+03
  3.349355e+01    2.785117e+03
  3.351643e+01    2.781460e+03
  3.353932e+01    2.779057e+03
  3.356220e+01    2.778149e+03
  3.358509e+01    2.778085e+03
  3.360798e+01    2.775120e+03
  3.363086e+01    2.773393e+03
  3.365375e+01    2.776890e+03
  3.367663e+01    2.779578e+03
  3.369952e+01    2.786153e+03
  3.372240e+01    2.796657e+03
  3.374529e+01    2.812401e+03
  3.376817e+01    2.834642e+03
  3.379106e+01    2.879223e+03
  3.381394e+01    2.962563e+03
  3.383683e+01    3.100844e+03
  3.385971e+01    3.359818e+03
  3.388260e+01    3.811395e+03
  3.390549e+01    4.506235e+03
  3.392837e+01    5.386454e+03
  3.395126e+01    6.193409e+03
  3.397414e+01    6.642170e+03
  3.399703e+01    6.557683e+03
  3.401991e+01    5.975017e+03
  3.404280e+01    5.086327e+03
  3.406568e+01    4.196688e+03
  3.408857e+01    3.544888e+03
  3.411145e+01    3.162275e+03
  3.413434e+01    2.959740e+03
  3.415722e+01    2.847454e+03
  3.418011e+01    2.779510e+03
  3.420300e+01    2.731229e+03
  3.422588e+01    2.700809e+03
  3.424877e+01    2.682667e+03
  3.427165e+01    2.666705e+03
  3.429454e+01    2.648644e+03
  3.431742e+01    2.636354e+03
  3.434031e+01    2.624997e+03
  3.436319e+01    2.617161e+03
  3.438608e+01    2.607922e+03
  3.440896e+01    2.600304e+03
  3.443185e+01    2.594021e+03
  3.445473e+01    2.587776e+03
  3.447762e+01    2.580097e+03
  3.450050e+01    2.574282e+03
  3.452339e+01    2.572759e+03
  3.454628e+01    2.571634e+03
  3.456916e+01    2.565119e+03
  3.459205e+01    2.564990e+03
  3.461493e+01    2.562657e+03
  3.463782e+01    2.557488e+03
  3.466070e+01    2.555061e+03
  3.468359e+01    2.554388e+03
  3.470647e+01    2.554664e+03
  3.472936e+01    2.554421e+03
  3.475224e+01    2.553549e+03
  3.477513e+01    2.555420e+03
  3.479801e+01    2.555170e+03
  3.482090e+01    2.558914e+03
  3.484379e+01    2.561953e+03
  3.486667e+01    2.563207e+03
  3.488956e+01    2.565408e+03
  3.491244e+01    2.571145e+03
  3.493533e+01    2.581177e+03
  3.495821e+01    2.585516e+03
  3.498110e+01    2.587454e+03
  3.500398e+01    2.589210e+03
  3.502687e+01    2.602497e+03
  3.504975e+01    2.608250e+03
  3.507264e+01    2.610353e+03
  3.509552e+01    2.604803e+03
  3.511841e+01    2.602863e+03
  3.514130e+01    2.599602e+03
  3.516418e+01    2.592720e+03
  3.518707e+01    2.578832e+03
  3.520995e+01    2.573232e+03
  3.523284e+01    2.568531e+03
  3.525572e+01    2.555961e+03
  3.527861e+01    2.546887e+03
  3.530149e+01    2.544265e+03
  3.532438e+01    2.538904e+03
  3.534726e+01    2.533256e+03
  3.537015e+01    2.526865e+03
  3.539303e+01    2.523235e+03
  3.541592e+01    2.522096e+03
  3.543880e+01    2.514434e+03
  3.546169e+01    2.507824e+03
  3.548458e+01    2.504908e+03
  3.550746e+01    2.503786e+03
  3.553035e+01    2.503409e+03
  3.555323e+01    2.502528e+03
  3.557612e+01    2.501290e+03
  3.559900e+01    2.496560e+03
  3.562189e+01    2.493861e+03
  3.564477e+01    2.495031e+03
  3.566766e+01    2.496917e+03
  3.569054e+01    2.495271e+03
  3.571343e+01    2.497325e+03
  3.573631e+01    2.496970e+03
  3.575920e+01    2.495523e+03
  3.578209e+01    2.495288e+03
  3.580497e+01    2.498180e+03
  3.582786e+01    2.500914e+03
  3.585074e+01    2.502257e+03
  3.587363e+01    2.499186e+03
  3.589651e+01    2.497007e+03
  3.591940e+01    2.499552e+03
  3.594228e+01    2.500352e+03
  3.596517e+01    2.501239e+03
  3.598805e+01    2.501609e+03
  3.601094e+01    2.500265e+03
  3.603382e+01    2.500203e+03
  3.605671e+01    2.500443e+03
  3.607960e+01    2.499728e+03
  3.610248e+01    2.499890e+03
  3.612537e+01    2.502657e+03
  3.614825e+01    2.506053e+03
  3.617114e+01    2.508172e+03
  3.619402e+01    2.512294e+03
  3.621691e+01    2.515020e+03
  3.623979e+01    2.514207e+03
  3.626268e+01    2.513601e+03
  3.628556e+01    2.517704e+03
  3.630845e+01    2.526537e+03
  3.633133e+01    2.531944e+03
  3.635422e+01    2.539481e+03
  3.637710e+01    2.553414e+03
  3.639999e+01    2.573436e+03
  3.642288e+01    2.609542e+03
  3.644576e+01    2.674343e+03
  3.646865e+01    2.795710e+03
  3.649153e+01    2.999053e+03
  3.651442e+01    3.293090e+03
  3.653730e+01    3.649317e+03
  3.656019e+01    3.952647e+03
  3.658307e+01    4.092189e+03
  3.660596e+01    4.023053e+03
  3.662884e+01    3.765835e+03
  3.665173e+01    3.400394e+03
  3.667461e+01    3.066993e+03
  3.669750e+01    2.836482e+03
  3.672039e+01    2.705845e+03
  3.674327e+01    2.644620e+03
  3.676616e+01    2.613490e+03
  3.678904e+01    2.595406e+03
  3.681193e+01    2.588684e+03
  3.683481e+01    2.586346e+03
  3.685770e+01    2.582252e+03
  3.688058e+01    2.588234e+03
  3.690347e+01    2.592256e+03
  3.692635e+01    2.595754e+03
  3.694924e+01    2.598784e+03
  3.697212e+01    2.608978e+03
  3.699501e+01    2.618491e+03
  3.701790e+01    2.623947e+03
  3.704078e+01    2.631720e+03
  3.706367e+01    2.632559e+03
  3.708655e+01    2.639830e+03
  3.710944e+01    2.652599e+03
  3.713232e+01    2.659125e+03
  3.715521e+01    2.671988e+03
  3.717809e+01    2.686261e+03
  3.720098e+01    2.695902e+03
  3.722386e+01    2.708016e+03
  3.724675e+01    2.719131e+03
  3.726963e+01    2.730132e+03
  3.729252e+01    2.745378e+03
  3.731541e+01    2.758691e+03
  3.733829e+01    2.771671e+03
  3.736118e+01    2.786559e+03
  3.738406e+01    2.805497e+03
  3.740695e+01    2.825145e+03
  3.742983e+01    2.849940e+03
  3.745272e+01    2.876748e+03
  3.747560e+01    2.904500e+03
  3.749849e+01    2.941671e+03
  3.752137e+01    2.988476e+03
  3.754426e+01    3.043598e+03
  3.756714e+01    3.110898e+03
  3.759003e+01    3.206984e+03
  3.761291e+01    3.346746e+03
  3.763580e+01    3.560088e+03
  3.765869e+01    3.910320e+03
  3.768157e+01    4.522729e+03
  3.770446e+01    5.637290e+03
  3.772734e+01    7.626028e+03
  3.775023e+01    1.079710e+04
  3.777311e+01    1.490161e+04
  3.779600e+01    1.883661e+04
  3.781888e+01    2.112433e+04
  3.784177e+01    2.104558e+04
  3.786465e+01    1.864804e+04
  3.788754e+01    1.461509e+04
  3.791042e+01    1.036244e+04
  3.793331e+01    7.206163e+03
  3.795620e+01    5.376035e+03
  3.797908e+01    4.413852e+03
  3.800197e+01    3.909229e+03
  3.802485e+01    3.625669e+03
  3.804774e+01    3.444366e+03
  3.807062e+01    3.328376e+03
  3.809351e+01    3.251899e+03
  3.811639e+01    3.192063e+03
  3.813928e+01    3.147406e+03
  3.816216e+01    3.116736e+03
  3.818505e+01    3.098469e+03
  3.820793e+01    3.079832e+03
  3.823082e+01    3.059033e+03
  3.825371e+01    3.047600e+03
  3.827659e+01    3.041164e+03
  3.829948e+01    3.037589e+03
  3.832236e+01    3.032809e+03
  3.834525e+01    3.031255e+03
  3.836813e+01    3.028088e+03
  3.839102e+01    3.026664e+03
  3.841390e+01    3.028974e+03
  3.843679e+01    3.031820e+03
  3.845967e+01    3.032429e+03
  3.848256e+01    3.031961e+03
  3.850544e+01    3.038393e+03
  3.852833e+01    3.042877e+03
  3.855121e+01    3.045649e+03
  3.857410e+01    3.050309e+03
  3.859699e+01    3.053973e+03
  3.861987e+01    3.060677e+03
  3.864276e+01    3.064438e+03
  3.866564e+01    3.069130e+03
  3.868853e+01    3.075196e+03
  3.871141e+01    3.078795e+03
  3.873430e+01    3.084188e+03
  3.875718e+01    3.086958e+03
  3.878007e+01    3.094636e+03
  3.880295e+01    3.095139e+03
  3.882584e+01    3.104860e+03
  3.884872e+01    3.115517e+03
  3.887161e+01    3.135006e+03
  3.889450e+01    3.167091e+03
  3.891738e+01    3.217303e+03
  3.894027e+01    3.305835e+03
  3.896315e+01    3.444325e+03
  3.898604e+01    3.618023e+03
  3.900892e+01    3.767599e+03
  3.903181e+01    3.837626e+03
  3.905469e+01    3.815923e+03
  3.907758e+01    3.701282e+03
  3.910046e+01    3.536052e+03
  3.912335e+01    3.371362e+03
  3.914623e+01    3.254302e+03
  3.916912e+01    3.190048e+03
  3.919201e+01    3.154476e+03
  3.921489e+01    3.131880e+03
  3.923778e+01    3.125212e+03
  3.926066e+01    3.120031e+03
  3.928355e+01    3.112424e+03
  3.930643e+01    3.103841e+03
  3.932932e+01    3.098884e+03
  3.935220e+01    3.097858e+03
  3.937509e+01    3.099424e+03
  3.939797e+01    3.100955e+03
  3.942086e+01    3.099687e+03
  3.944374e+01    3.092956e+03
  3.946663e+01    3.092001e+03
  3.948951e+01    3.093646e+03
  3.951240e+01    3.088823e+03
  3.953529e+01    3.085520e+03
  3.955817e+01    3.086438e+03
  3.958106e+01    3.083677e+03
  3.960394e+01    3.083680e+03
  3.962683e+01    3.087536e+03
  3.964971e+01    3.089267e+03
  3.967260e+01    3.090552e+03
  3.969548e+01    3.084380e+03
  3.971837e+01    3.081499e+03
  3.974125e+01    3.082597e+03
  3.976414e+01    3.080344e+03
  3.978702e+01    3.078378e+03
  3.980991e+01    3.069865e+03
  3.983280e+01    3.064277e+03
  3.985568e+01    3.067427e+03
  3.987857e+01    3.073016e+03
  3.990145e+01    3.075218e+03
  3.992434e+01    3.062241e+03
  3.994722e+01    3.054095e+03
  3.997011e+01    3.051008e+03
  3.999299e+01    3.047174e+03
  4.001588e+01    3.048118e+03
  4.003876e+01    3.047005e+03
  4.006165e+01    3.048249e+03
  4.008453e+01    3.061746e+03
  4.010742e+01    3.079210e+03
  4.013031e+01    3.107581e+03
  4.015319e+01    3.147482e+03
  4.017608e+01    3.192591e+03
  4.019896e+01    3.222615e+03
  4.022185e+01    3.221896e+03
  4.024473e+01    3.199771e+03
  4.026762e+01    3.161000e+03
  4.029050e+01    3.116201e+03
  4.031339e+01    3.076738e+03
  4.033627e+01    3.054568e+03
  4.035916e+01    3.042633e+03
  4.038204e+01    3.034318e+03
  4.040493e+01    3.029393e+03
  4.042782e+01    3.025577e+03
  4.045070e+01    3.024050e+03
  4.047359e+01    3.023611e+03
  4.049647e+01    3.017484e+03
  4.051936e+01    3.017845e+03
  4.054224e+01    3.020830e+03
  4.056513e+01    3.017021e+03
  4.058801e+01    3.016002e+03
  4.061090e+01    3.016165e+03
  4.063378e+01    3.014756e+03
  4.065667e+01    3.014947e+03
  4.067955e+01    3.017128e+03
  4.070244e+01    3.018881e+03
  4.072532e+01    3.021554e+03
  4.074821e+01    3.017535e+03
  4.077110e+01    3.013810e+03
  4.079398e+01    3.015097e+03
  4.081687e+01    3.015273e+03
  4.083975e+01    3.016972e+03
  4.086264e+01    3.012997e+03
  4.088552e+01    3.017725e+03
  4.090841e+01    3.026136e+03
  4.093129e+01    3.028290e+03
  4.095418e+01    3.030399e+03
  4.097706e+01    3.032755e+03
  4.099995e+01    3.032454e+03
  4.102283e+01    3.036611e+03
  4.104572e+01    3.044404e+03
  4.106861e+01    3.047170e+03
  4.109149e+01    3.056525e+03
  4.111438e+01    3.070208e+03
  4.113726e+01    3.082048e+03
  4.116015e+01    3.102116e+03
  4.118303e+01    3.131468e+03
  4.120592e+01    3.177137e+03
  4.122880e+01    3.275796e+03
  4.125169e+01    3.449923e+03
  4.127457e+01    3.744493e+03
  4.129746e+01    4.170143e+03
  4.132034e+01    4.628066e+03
  4.134323e+01    4.962856e+03
  4.136612e+01    5.064274e+03
  4.138900e+01    4.910205e+03
  4.141189e+01    4.530786e+03
  4.143477e+01    4.052810e+03
  4.145766e+01    3.649954e+03
  4.148054e+01    3.401500e+03
  4.150343e+01    3.269634e+03
  4.152631e+01    3.203028e+03
  4.154920e+01    3.175629e+03
  4.157208e+01    3.150058e+03
  4.159497e+01    3.140161e+03
  4.161785e+01    3.136999e+03
  4.164074e+01    3.134854e+03
  4.166362e+01    3.134293e+03
  4.168651e+01    3.137449e+03
  4.170940e+01    3.140107e+03
  4.173228e+01    3.138932e+03
  4.175517e+01    3.134212e+03
  4.177805e+01    3.131489e+03
  4.180094e+01    3.131103e+03
  4.182382e+01    3.129697e+03
  4.184671e+01    3.127017e+03
  4.186959e+01    3.122261e+03
  4.189248e+01    3.121103e+03
  4.191536e+01    3.123271e+03
  4.193825e+01    3.119713e+03
  4.196113e+01    3.114553e+03
  4.198402e+01    3.114981e+03
  4.200691e+01    3.113962e+03
  4.202979e+01    3.114027e+03
  4.205268e+01    3.116236e+03
  4.207556e+01    3.120185e+03
  4.209845e+01    3.127082e+03
  4.212133e+01    3.133618e+03
  4.214422e+01    3.139756e+03
  4.216710e+01    3.141031e+03
  4.218999e+01    3.145639e+03
  4.221287e+01    3.154720e+03
  4.223576e+01    3.156648e+03
  4.225864e+01    3.164591e+03
  4.228153e+01    3.172641e+03
  4.230442e+01    3.187974e+03
  4.232730e+01    3.204851e+03
  4.235019e+01    3.225550e+03
  4.237307e+01    3.261427e+03
  4.239596e+01    3.323809e+03
  4.241884e+01    3.411323e+03
  4.244173e+01    3.504125e+03
  4.246461e+01    3.567932e+03
  4.248750e+01    3.585353e+03
  4.251038e+01    3.549655e+03
  4.253327e+01    3.458153e+03
  4.255615e+01    3.340504e+03
  4.257904e+01    3.243407e+03
  4.260192e+01    3.180858e+03
  4.262481e+01    3.149000e+03
  4.264770e+01    3.130005e+03
  4.267058e+01    3.119655e+03
  4.269347e+01    3.115646e+03
  4.271635e+01    3.110482e+03
  4.273924e+01    3.105219e+03
  4.276212e+01    3.105271e+03
  4.278501e+01    3.105008e+03
  4.280789e+01    3.101529e+03
  4.283078e+01    3.093019e+03
  4.285366e+01    3.095143e+03
  4.287655e+01    3.095633e+03
  4.289943e+01    3.089927e+03
  4.292232e+01    3.089983e+03
  4.294521e+01    3.094024e+03
  4.296809e+01    3.095536e+03
  4.299098e+01    3.093871e+03
  4.301386e+01    3.095052e+03
  4.303675e+01    3.099918e+03
  4.305963e+01    3.096289e+03
  4.308252e+01    3.098731e+03
  4.310540e+01    3.106288e+03
  4.312829e+01    3.105386e+03
  4.315117e+01    3.115737e+03
  4.317406e+01    3.114778e+03
  4.319694e+01    3.124545e+03
  4.321983e+01    3.126876e+03
  4.324272e+01    3.135092e+03
  4.326560e+01    3.146206e+03
  4.328849e+01    3.151965e+03
  4.331137e+01    3.165257e+03
  4.333426e+01    3.174619e+03
  4.335714e+01    3.192137e+03
  4.338003e+01    3.207910e+03
  4.340291e+01    3.237725e+03
  4.342580e+01    3.285084e+03
  4.344868e+01    3.358915e+03
  4.347157e+01    3.501397e+03
  4.349445e+01    3.740117e+03
  4.351734e+01    4.087867e+03
  4.354022e+01    4.465020e+03
  4.356311e+01    4.744613e+03
  4.358600e+01    4.822218e+03
  4.360888e+01    4.698106e+03
  4.363177e+01    4.398419e+03
  4.365465e+01    3.992658e+03
  4.367754e+01    3.644176e+03
  4.370042e+01    3.430141e+03
  4.372331e+01    3.317134e+03
  4.374619e+01    3.259001e+03
  4.376908e+01    3.237973e+03
  4.379196e+01    3.224115e+03
  4.381485e+01    3.218467e+03
  4.383773e+01    3.218481e+03
  4.386062e+01    3.220452e+03
  4.388351e+01    3.225904e+03
  4.390639e+01    3.243151e+03
  4.392928e+01    3.255935e+03
  4.395216e+01    3.278456e+03
  4.397505e+01    3.309260e+03
  4.399793e+01    3.344160e+03
  4.402082e+01    3.403608e+03
  4.404370e+01    3.490443e+03
  4.406659e+01    3.612418e+03
  4.408947e+01    3.790781e+03
  4.411236e+01    4.052491e+03
  4.413524e+01    4.425934e+03
  4.415813e+01    4.946615e+03
  4.418102e+01    5.636538e+03
  4.420390e+01    6.411160e+03
  4.422679e+01    7.105528e+03
  4.424967e+01    7.519585e+03
  4.427256e+01    7.517103e+03
  4.429544e+01    7.070698e+03
  4.431833e+01    6.295278e+03
  4.434121e+01    5.491312e+03
  4.436410e+01    4.840037e+03
  4.438698e+01    4.370929e+03
  4.440987e+01    4.057052e+03
  4.443275e+01    3.874463e+03
  4.445564e+01    3.790480e+03
  4.447853e+01    3.792657e+03
  4.450141e+01    3.895625e+03
  4.452430e+01    4.158671e+03
  4.454718e+01    4.690345e+03
  4.457007e+01    5.640907e+03
  4.459295e+01    7.049491e+03
  4.461584e+01    8.592147e+03
  4.463872e+01    9.684501e+03
  4.466161e+01    9.990803e+03
  4.468449e+01    9.503963e+03
  4.470738e+01    8.258093e+03
  4.473026e+01    6.610210e+03
  4.475315e+01    5.184649e+03
  4.477603e+01    4.287147e+03
  4.479892e+01    3.806101e+03
  4.482181e+01    3.550103e+03
  4.484469e+01    3.399136e+03
  4.486758e+01    3.310790e+03
  4.489046e+01    3.248845e+03
  4.491335e+01    3.199917e+03
  4.493623e+01    3.175417e+03
  4.495912e+01    3.150651e+03
  4.498200e+01    3.134363e+03
  4.500489e+01    3.115641e+03
  4.502777e+01    3.104548e+03
  4.505066e+01    3.097587e+03
  4.507354e+01    3.088073e+03
  4.509643e+01    3.083057e+03
  4.511932e+01    3.073825e+03
  4.514220e+01    3.073252e+03
  4.516509e+01    3.066872e+03
  4.518797e+01    3.061158e+03
  4.521086e+01    3.052958e+03
  4.523374e+01    3.049544e+03
  4.525663e+01    3.049599e+03
  4.527951e+01    3.047739e+03
  4.530240e+01    3.042539e+03
  4.532528e+01    3.037399e+03
  4.534817e+01    3.039199e+03
  4.537105e+01    3.041094e+03
  4.539394e+01    3.042871e+03
  4.541683e+01    3.043820e+03
  4.543971e+01    3.043171e+03
  4.546260e+01    3.046868e+03
  4.548548e+01    3.059029e+03
  4.550837e+01    3.074672e+03
  4.553125e+01    3.102652e+03
  4.555414e+01    3.149694e+03
  4.557702e+01    3.233444e+03
  4.559991e+01    3.391123e+03
  4.562279e+01    3.653312e+03
  4.564568e+01    4.056722e+03
  4.566856e+01    4.509570e+03
  4.569145e+01    4.843392e+03
  4.571433e+01    4.959421e+03
  4.573722e+01    4.833865e+03
  4.576011e+01    4.487938e+03
  4.578299e+01    4.021327e+03
  4.580588e+01    3.597297e+03
  4.582876e+01    3.323114e+03
  4.585165e+01    3.178721e+03
  4.587453e+01    3.093435e+03
  4.589742e+01    3.047435e+03
  4.592030e+01    3.016255e+03
  4.594319e+01    3.002599e+03
  4.596607e+01    2.990990e+03
  4.598896e+01    2.977719e+03
  4.601184e+01    2.964457e+03
  4.603473e+01    2.962016e+03
  4.605762e+01    2.967054e+03
  4.608050e+01    2.955570e+03
  4.610339e+01    2.950013e+03
  4.612627e+01    2.954028e+03
  4.614916e+01    2.949101e+03
  4.617204e+01    2.951376e+03
  4.619493e+01    2.948625e+03
  4.621781e+01    2.951836e+03
  4.624070e+01    2.944354e+03
  4.626358e+01    2.943560e+03
  4.628647e+01    2.930595e+03
  4.630935e+01    2.928454e+03
  4.633224e+01    2.933808e+03
  4.635513e+01    2.921611e+03
  4.637801e+01    2.908708e+03
  4.640090e+01    2.902415e+03
  4.642378e+01    2.887760e+03
  4.644667e+01    2.881651e+03
  4.646955e+01    2.875197e+03
  4.649244e+01    2.872752e+03
  4.651532e+01    2.868124e+03
  4.653821e+01    2.866853e+03
  4.656109e+01    2.869718e+03
  4.658398e+01    2.883177e+03
  4.660686e+01    2.904502e+03
  4.662975e+01    2.939497e+03
  4.665263e+01    3.001762e+03
  4.667552e+01    3.109774e+03
  4.669841e+01    3.243085e+03
  4.672129e+01    3.344742e+03
  4.674418e+01    3.395467e+03
  4.676706e+01    3.372037e+03
  4.678995e+01    3.289257e+03
  4.681283e+01    3.160148e+03
  4.683572e+01    3.035328e+03
  4.685860e+01    2.947956e+03
  4.688149e+01    2.897818e+03
  4.690437e+01    2.876477e+03
  4.692726e+01    2.864698e+03
  4.695014e+01    2.850965e+03
  4.697303e+01    2.840335e+03
  4.699592e+01    2.838093e+03
  4.701880e+01    2.833923e+03
  4.704169e+01    2.835758e+03
  4.706457e+01    2.837160e+03
  4.708746e+01    2.825265e+03
  4.711034e+01    2.817354e+03
  4.713323e+01    2.814736e+03
  4.715611e+01    2.794858e+03
  4.717900e+01    2.793686e+03
  4.720188e+01    2.781060e+03
  4.722477e+01    2.770246e+03
  4.724765e+01    2.765351e+03
  4.727054e+01    2.759888e+03
  4.729343e+01    2.761341e+03
  4.731631e+01    2.746284e+03
  4.733920e+01    2.737735e+03
  4.736208e+01    2.734646e+03
  4.738497e+01    2.739820e+03
  4.740785e+01    2.749502e+03
  4.743074e+01    2.745536e+03
  4.745362e+01    2.737564e+03
  4.747651e+01    2.743408e+03
  4.749939e+01    2.751557e+03
  4.752228e+01    2.751107e+03
  4.754516e+01    2.754501e+03
  4.756805e+01    2.733027e+03
  4.759094e+01    2.763787e+03
  4.761382e+01    2.793472e+03
  4.763671e+01    2.831918e+03
  4.765959e+01    2.853474e+03
  4.768248e+01    2.904263e+03
  4.770536e+01    2.986062e+03
  4.772825e+01    3.014199e+03
  4.775113e+01    3.073752e+03
  4.777402e+01    3.009756e+03
  4.779690e+01    2.956974e+03
  4.781979e+01    2.767269e+03
  4.784267e+01    2.585262e+03
  4.786556e+01    2.166369e+03
  4.788844e+01    1.048212e+03