File: Output/ROCK_XRD/WAM39B_integrated/wam39b_fin_palier_zn_4_xrd_000001_integrated.dat
# == pyFAI calibration ==
# Distance Sample to Detector: 0.261615 m
# PONI: 2.023e-01, 2.348e-01 m
# Rotations: -0.026380 0.002005 0.000000 rad
#
# == Fit2d calibration ==
# Distance Sample-beamCenter: 261.707 mm
# Center: x=6119.331, y=5134.776 pix
# Tilt: 1.516 deg  TiltPlanRot: 4.347 deg
#
# Detector Rayonix SX165	 PixelSize= 3.950e-05, 3.950e-05 m
#    Detector has a mask: True
#    Detector has a dark current: False
#    detector has a flat field: False
#
# Wavelength: 1.12713e-10 m
# Mask applied: from detector
# Dark current applied: False
# Flat field applied: False
# Polarization factor: None
# Normalization factor: 1.0
# --> ROCK\\WAM39B_integrated\wam39b_fin_palier_zn_4_xrd_000001_integrated.dat
#       2th_deg             I
  2.502596e+01    4.202184e+03
  2.504885e+01    1.103120e+04
  2.507173e+01    1.486473e+04
  2.509462e+01    1.581038e+04
  2.511750e+01    1.729175e+04
  2.514039e+01    1.789533e+04
  2.516327e+01    1.783285e+04
  2.518616e+01    1.769603e+04
  2.520905e+01    1.758634e+04
  2.523193e+01    1.735881e+04
  2.525482e+01    1.740901e+04
  2.527770e+01    1.772871e+04
  2.530059e+01    1.765823e+04
  2.532347e+01    1.748564e+04
  2.534636e+01    1.732861e+04
  2.536924e+01    1.725389e+04
  2.539213e+01    1.724424e+04
  2.541501e+01    1.724638e+04
  2.543790e+01    1.727215e+04
  2.546078e+01    1.734000e+04
  2.548367e+01    1.735481e+04
  2.550656e+01    1.727224e+04
  2.552944e+01    1.725455e+04
  2.555233e+01    1.755083e+04
  2.557521e+01    1.775408e+04
  2.559810e+01    1.780205e+04
  2.562098e+01    1.790945e+04
  2.564387e+01    1.802657e+04
  2.566675e+01    1.812458e+04
  2.568964e+01    1.813405e+04
  2.571252e+01    1.812524e+04
  2.573541e+01    1.814143e+04
  2.575829e+01    1.807177e+04
  2.578118e+01    1.792020e+04
  2.580407e+01    1.780659e+04
  2.582695e+01    1.769945e+04
  2.584984e+01    1.756823e+04
  2.587272e+01    1.743992e+04
  2.589561e+01    1.737945e+04
  2.591849e+01    1.725315e+04
  2.594138e+01    1.715638e+04
  2.596426e+01    1.712141e+04
  2.598715e+01    1.701561e+04
  2.601003e+01    1.700937e+04
  2.603292e+01    1.697227e+04
  2.605580e+01    1.696310e+04
  2.607869e+01    1.703301e+04
  2.610157e+01    1.711873e+04
  2.612446e+01    1.725719e+04
  2.614735e+01    1.749477e+04
  2.617023e+01    1.784993e+04
  2.619312e+01    1.840191e+04
  2.621600e+01    1.928524e+04
  2.623889e+01    2.057856e+04
  2.626177e+01    2.264320e+04
  2.628466e+01    2.565208e+04
  2.630754e+01    2.944246e+04
  2.633043e+01    3.330687e+04
  2.635331e+01    3.659980e+04
  2.637620e+01    3.953987e+04
  2.639908e+01    4.231329e+04
  2.642197e+01    4.383368e+04
  2.644486e+01    4.272904e+04
  2.646774e+01    3.892805e+04
  2.649063e+01    3.353441e+04
  2.651351e+01    2.842992e+04
  2.653640e+01    2.439964e+04
  2.655928e+01    2.157435e+04
  2.658217e+01    1.967534e+04
  2.660505e+01    1.841036e+04
  2.662794e+01    1.755049e+04
  2.665082e+01    1.692034e+04
  2.667371e+01    1.647364e+04
  2.669659e+01    1.614086e+04
  2.671948e+01    1.588656e+04
  2.674237e+01    1.569843e+04
  2.676525e+01    1.554793e+04
  2.678814e+01    1.541423e+04
  2.681102e+01    1.530898e+04
  2.683391e+01    1.521059e+04
  2.685679e+01    1.512894e+04
  2.687968e+01    1.506512e+04
  2.690256e+01    1.496297e+04
  2.692545e+01    1.490426e+04
  2.694833e+01    1.484198e+04
  2.697122e+01    1.477131e+04
  2.699410e+01    1.471167e+04
  2.701699e+01    1.469919e+04
  2.703988e+01    1.462838e+04
  2.706276e+01    1.457676e+04
  2.708565e+01    1.455419e+04
  2.710853e+01    1.450961e+04
  2.713142e+01    1.447082e+04
  2.715430e+01    1.442933e+04
  2.717719e+01    1.438501e+04
  2.720007e+01    1.432263e+04
  2.722296e+01    1.429182e+04
  2.724584e+01    1.424555e+04
  2.726873e+01    1.422793e+04
  2.729161e+01    1.418623e+04
  2.731450e+01    1.415321e+04
  2.733738e+01    1.410754e+04
  2.736027e+01    1.406587e+04
  2.738316e+01    1.403659e+04
  2.740604e+01    1.400627e+04
  2.742893e+01    1.398917e+04
  2.745181e+01    1.399308e+04
  2.747470e+01    1.396873e+04
  2.749758e+01    1.394990e+04
  2.752047e+01    1.393842e+04
  2.754335e+01    1.394084e+04
  2.756624e+01    1.394893e+04
  2.758912e+01    1.396210e+04
  2.761201e+01    1.396811e+04
  2.763489e+01    1.397916e+04
  2.765778e+01    1.401461e+04
  2.768067e+01    1.406117e+04
  2.770355e+01    1.411855e+04
  2.772644e+01    1.415888e+04
  2.774932e+01    1.421947e+04
  2.777221e+01    1.432704e+04
  2.779509e+01    1.446389e+04
  2.781798e+01    1.466453e+04
  2.784086e+01    1.492205e+04
  2.786375e+01    1.532163e+04
  2.788663e+01    1.591693e+04
  2.790952e+01    1.678620e+04
  2.793240e+01    1.790418e+04
  2.795529e+01    1.889438e+04
  2.797818e+01    1.926234e+04
  2.800106e+01    1.877184e+04
  2.802395e+01    1.766247e+04
  2.804683e+01    1.644060e+04
  2.806972e+01    1.545491e+04
  2.809260e+01    1.477303e+04
  2.811549e+01    1.432213e+04
  2.813837e+01    1.400602e+04
  2.816126e+01    1.376686e+04
  2.818414e+01    1.357084e+04
  2.820703e+01    1.340848e+04
  2.822991e+01    1.326238e+04
  2.825280e+01    1.313789e+04
  2.827568e+01    1.303732e+04
  2.829857e+01    1.294040e+04
  2.832146e+01    1.286107e+04
  2.834434e+01    1.278160e+04
  2.836723e+01    1.270520e+04
  2.839011e+01    1.263615e+04
  2.841300e+01    1.256160e+04
  2.843588e+01    1.250610e+04
  2.845877e+01    1.245242e+04
  2.848165e+01    1.240733e+04
  2.850454e+01    1.236526e+04
  2.852742e+01    1.232465e+04
  2.855031e+01    1.228910e+04
  2.857319e+01    1.223177e+04
  2.859608e+01    1.218571e+04
  2.861897e+01    1.214925e+04
  2.864185e+01    1.210792e+04
  2.866474e+01    1.207758e+04
  2.868762e+01    1.202739e+04
  2.871051e+01    1.199453e+04
  2.873339e+01    1.196524e+04
  2.875628e+01    1.193559e+04
  2.877916e+01    1.191811e+04
  2.880205e+01    1.190121e+04
  2.882493e+01    1.188530e+04
  2.884782e+01    1.187601e+04
  2.887070e+01    1.187061e+04
  2.889359e+01    1.186317e+04
  2.891648e+01    1.184459e+04
  2.893936e+01    1.182346e+04
  2.896225e+01    1.178504e+04
  2.898513e+01    1.173442e+04
  2.900802e+01    1.168432e+04
  2.903090e+01    1.161686e+04
  2.905379e+01    1.154414e+04
  2.907667e+01    1.148091e+04
  2.909956e+01    1.140823e+04
  2.912244e+01    1.134721e+04
  2.914533e+01    1.128800e+04
  2.916821e+01    1.123375e+04
  2.919110e+01    1.118136e+04
  2.921398e+01    1.112873e+04
  2.923687e+01    1.109048e+04
  2.925976e+01    1.104255e+04
  2.928264e+01    1.100866e+04
  2.930553e+01    1.098968e+04
  2.932841e+01    1.096081e+04
  2.935130e+01    1.093268e+04
  2.937418e+01    1.093303e+04
  2.939707e+01    1.099398e+04
  2.941995e+01    1.108549e+04
  2.944284e+01    1.127667e+04
  2.946572e+01    1.160458e+04
  2.948861e+01    1.198494e+04
  2.951149e+01    1.228336e+04
  2.953438e+01    1.232495e+04
  2.955727e+01    1.203955e+04
  2.958015e+01    1.157831e+04
  2.960304e+01    1.114922e+04
  2.962592e+01    1.082954e+04
  2.964881e+01    1.061601e+04
  2.967169e+01    1.048091e+04
  2.969458e+01    1.039434e+04
  2.971746e+01    1.032935e+04
  2.974035e+01    1.027760e+04
  2.976323e+01    1.023257e+04
  2.978612e+01    1.020223e+04
  2.980900e+01    1.017318e+04
  2.983189e+01    1.014485e+04
  2.985478e+01    1.011162e+04
  2.987766e+01    1.007479e+04
  2.990055e+01    1.006067e+04
  2.992343e+01    1.005154e+04
  2.994632e+01    1.003024e+04
  2.996920e+01    1.001599e+04
  2.999209e+01    1.001264e+04
  3.001497e+01    1.001835e+04
  3.003786e+01    1.001499e+04
  3.006074e+01    1.000582e+04
  3.008363e+01    1.000574e+04
  3.010651e+01    1.001383e+04
  3.012940e+01    1.002828e+04
  3.015228e+01    1.002431e+04
  3.017517e+01    1.002842e+04
  3.019806e+01    1.005274e+04
  3.022094e+01    1.006319e+04
  3.024383e+01    1.008331e+04
  3.026671e+01    1.012866e+04
  3.028960e+01    1.018343e+04
  3.031248e+01    1.025622e+04
  3.033537e+01    1.036848e+04
  3.035825e+01    1.051984e+04
  3.038114e+01    1.072374e+04
  3.040402e+01    1.102445e+04
  3.042691e+01    1.147920e+04
  3.044979e+01    1.218755e+04
  3.047268e+01    1.331259e+04
  3.049557e+01    1.512204e+04
  3.051845e+01    1.797480e+04
  3.054134e+01    2.229000e+04
  3.056422e+01    2.830599e+04
  3.058711e+01    3.542320e+04
  3.060999e+01    4.130295e+04
  3.063288e+01    4.301138e+04
  3.065576e+01    3.996011e+04
  3.067865e+01    3.414906e+04
  3.070153e+01    2.785335e+04
  3.072442e+01    2.244815e+04
  3.074730e+01    1.850081e+04
  3.077019e+01    1.583553e+04
  3.079308e+01    1.412670e+04
  3.081596e+01    1.309334e+04
  3.083885e+01    1.256839e+04
  3.086173e+01    1.251758e+04
  3.088462e+01    1.303885e+04
  3.090750e+01    1.436562e+04
  3.093039e+01    1.686618e+04
  3.095327e+01    2.055080e+04
  3.097616e+01    2.443817e+04
  3.099904e+01    2.661121e+04
  3.102193e+01    2.577862e+04
  3.104481e+01    2.243280e+04
  3.106770e+01    1.828349e+04
  3.109059e+01    1.483917e+04
  3.111347e+01    1.259994e+04
  3.113636e+01    1.129389e+04
  3.115924e+01    1.054081e+04
  3.118213e+01    1.010524e+04
  3.120501e+01    9.829001e+03
  3.122790e+01    9.631783e+03
  3.125078e+01    9.493577e+03
  3.127367e+01    9.388907e+03
  3.129655e+01    9.299865e+03
  3.131944e+01    9.235230e+03
  3.134232e+01    9.185924e+03
  3.136521e+01    9.135233e+03
  3.138809e+01    9.091075e+03
  3.141098e+01    9.059379e+03
  3.143387e+01    9.033555e+03
  3.145675e+01    9.008019e+03
  3.147964e+01    8.973326e+03
  3.150252e+01    8.941639e+03
  3.152541e+01    8.920282e+03
  3.154829e+01    8.893791e+03
  3.157118e+01    8.871438e+03
  3.159406e+01    8.849633e+03
  3.161695e+01    8.831080e+03
  3.163983e+01    8.809100e+03
  3.166272e+01    8.792834e+03
  3.168560e+01    8.779922e+03
  3.170849e+01    8.766267e+03
  3.173138e+01    8.750950e+03
  3.175426e+01    8.732858e+03
  3.177715e+01    8.714862e+03
  3.180003e+01    8.705161e+03
  3.182292e+01    8.701366e+03
  3.184580e+01    8.695885e+03
  3.186869e+01    8.693410e+03
  3.189157e+01    8.678843e+03
  3.191446e+01    8.663655e+03
  3.193734e+01    8.670738e+03
  3.196023e+01    8.678507e+03
  3.198311e+01    8.666293e+03
  3.200600e+01    8.653876e+03
  3.202889e+01    8.653976e+03
  3.205177e+01    8.652271e+03
  3.207466e+01    8.639190e+03
  3.209754e+01    8.618150e+03
  3.212043e+01    8.603981e+03
  3.214331e+01    8.590731e+03
  3.216620e+01    8.574303e+03
  3.218908e+01    8.556479e+03
  3.221197e+01    8.535074e+03
  3.223485e+01    8.525348e+03
  3.225774e+01    8.535910e+03
  3.228062e+01    8.572321e+03
  3.230351e+01    8.634271e+03
  3.232639e+01    8.771225e+03
  3.234928e+01    9.021685e+03
  3.237217e+01    9.383196e+03
  3.239505e+01    9.739851e+03
  3.241794e+01    9.916298e+03
  3.244082e+01    9.802517e+03
  3.246371e+01    9.478673e+03
  3.248659e+01    9.099874e+03
  3.250948e+01    8.795280e+03
  3.253236e+01    8.598021e+03
  3.255525e+01    8.474901e+03
  3.257813e+01    8.405889e+03
  3.260102e+01    8.376170e+03
  3.262390e+01    8.365856e+03
  3.264679e+01    8.357826e+03
  3.266968e+01    8.345427e+03
  3.269256e+01    8.332023e+03
  3.271545e+01    8.320617e+03
  3.273833e+01    8.295510e+03
  3.276122e+01    8.268927e+03
  3.278410e+01    8.237407e+03
  3.280699e+01    8.199942e+03
  3.282987e+01    8.169139e+03
  3.285276e+01    8.142965e+03
  3.287564e+01    8.106711e+03
  3.289853e+01    8.078179e+03
  3.292141e+01    8.049539e+03
  3.294430e+01    8.031081e+03
  3.296719e+01    8.014581e+03
  3.299007e+01    7.995215e+03
  3.301296e+01    7.980526e+03
  3.303584e+01    7.968637e+03
  3.305873e+01    7.955933e+03
  3.308161e+01    7.943752e+03
  3.310450e+01    7.931547e+03
  3.312738e+01    7.925063e+03
  3.315027e+01    7.919123e+03
  3.317315e+01    7.901973e+03
  3.319604e+01    7.894381e+03
  3.321892e+01    7.887212e+03
  3.324181e+01    7.885034e+03
  3.326469e+01    7.878677e+03
  3.328758e+01    7.878681e+03
  3.331047e+01    7.879927e+03
  3.333335e+01    7.872311e+03
  3.335624e+01    7.863211e+03
  3.337912e+01    7.859148e+03
  3.340201e+01    7.855083e+03
  3.342489e+01    7.861899e+03
  3.344778e+01    7.866801e+03
  3.347066e+01    7.877872e+03
  3.349355e+01    7.895312e+03
  3.351643e+01    7.917201e+03
  3.353932e+01    7.956942e+03
  3.356220e+01    8.020746e+03
  3.358509e+01    8.113465e+03
  3.360798e+01    8.266848e+03
  3.363086e+01    8.530211e+03
  3.365375e+01    9.015807e+03
  3.367663e+01    9.915969e+03
  3.369952e+01    1.152321e+04
  3.372240e+01    1.406479e+04
  3.374529e+01    1.717699e+04
  3.376817e+01    1.959697e+04
  3.379106e+01    2.002808e+04
  3.381394e+01    1.830840e+04
  3.383683e+01    1.536691e+04
  3.385971e+01    1.251971e+04
  3.388260e+01    1.049742e+04
  3.390549e+01    9.284496e+03
  3.392837e+01    8.614004e+03
  3.395126e+01    8.228074e+03
  3.397414e+01    8.009049e+03
  3.399703e+01    7.871367e+03
  3.401991e+01    7.774131e+03
  3.404280e+01    7.700473e+03
  3.406568e+01    7.639176e+03
  3.408857e+01    7.594443e+03
  3.411145e+01    7.562350e+03
  3.413434e+01    7.523620e+03
  3.415722e+01    7.500048e+03
  3.418011e+01    7.479391e+03
  3.420300e+01    7.460235e+03
  3.422588e+01    7.446236e+03
  3.424877e+01    7.439827e+03
  3.427165e+01    7.435317e+03
  3.429454e+01    7.420592e+03
  3.431742e+01    7.406181e+03
  3.434031e+01    7.399273e+03
  3.436319e+01    7.392245e+03
  3.438608e+01    7.384153e+03
  3.440896e+01    7.374454e+03
  3.443185e+01    7.368573e+03
  3.445473e+01    7.363545e+03
  3.447762e+01    7.350964e+03
  3.450050e+01    7.342603e+03
  3.452339e+01    7.332108e+03
  3.454628e+01    7.330324e+03
  3.456916e+01    7.323788e+03
  3.459205e+01    7.320856e+03
  3.461493e+01    7.320708e+03
  3.463782e+01    7.327706e+03
  3.466070e+01    7.330542e+03
  3.468359e+01    7.333599e+03
  3.470647e+01    7.339883e+03
  3.472936e+01    7.342480e+03
  3.475224e+01    7.351921e+03
  3.477513e+01    7.357265e+03
  3.479801e+01    7.357937e+03
  3.482090e+01    7.358947e+03
  3.484379e+01    7.354968e+03
  3.486667e+01    7.358917e+03
  3.488956e+01    7.354673e+03
  3.491244e+01    7.334425e+03
  3.493533e+01    7.320749e+03
  3.495821e+01    7.298616e+03
  3.498110e+01    7.271375e+03
  3.500398e+01    7.240361e+03
  3.502687e+01    7.213402e+03
  3.504975e+01    7.186814e+03
  3.507264e+01    7.160137e+03
  3.509552e+01    7.126238e+03
  3.511841e+01    7.102782e+03
  3.514130e+01    7.079370e+03
  3.516418e+01    7.066199e+03
  3.518707e+01    7.048392e+03
  3.520995e+01    7.032042e+03
  3.523284e+01    7.019046e+03
  3.525572e+01    7.004920e+03
  3.527861e+01    6.985789e+03
  3.530149e+01    6.968658e+03
  3.532438e+01    6.950739e+03
  3.534726e+01    6.931465e+03
  3.537015e+01    6.913222e+03
  3.539303e+01    6.901545e+03
  3.541592e+01    6.890418e+03
  3.543880e+01    6.878205e+03
  3.546169e+01    6.867547e+03
  3.548458e+01    6.853786e+03
  3.550746e+01    6.847185e+03
  3.553035e+01    6.842762e+03
  3.555323e+01    6.833690e+03
  3.557612e+01    6.821307e+03
  3.559900e+01    6.815356e+03
  3.562189e+01    6.808719e+03
  3.564477e+01    6.805846e+03
  3.566766e+01    6.798626e+03
  3.569054e+01    6.782612e+03
  3.571343e+01    6.779025e+03
  3.573631e+01    6.778904e+03
  3.575920e+01    6.772366e+03
  3.578209e+01    6.770725e+03
  3.580497e+01    6.774279e+03
  3.582786e+01    6.773693e+03
  3.585074e+01    6.771128e+03
  3.587363e+01    6.769437e+03
  3.589651e+01    6.768636e+03
  3.591940e+01    6.774423e+03
  3.594228e+01    6.781422e+03
  3.596517e+01    6.787766e+03
  3.598805e+01    6.795132e+03
  3.601094e+01    6.800075e+03
  3.603382e+01    6.804908e+03
  3.605671e+01    6.810972e+03
  3.607960e+01    6.823163e+03
  3.610248e+01    6.838352e+03
  3.612537e+01    6.861341e+03
  3.614825e+01    6.889553e+03
  3.617114e+01    6.926972e+03
  3.619402e+01    6.985081e+03
  3.621691e+01    7.088696e+03
  3.623979e+01    7.273773e+03
  3.626268e+01    7.614086e+03
  3.628556e+01    8.229536e+03
  3.630845e+01    9.224550e+03
  3.633133e+01    1.047217e+04
  3.635422e+01    1.147872e+04
  3.637710e+01    1.171087e+04
  3.639999e+01    1.109645e+04
  3.642288e+01    9.972571e+03
  3.644576e+01    8.823285e+03
  3.646865e+01    8.002232e+03
  3.649153e+01    7.517704e+03
  3.651442e+01    7.246328e+03
  3.653730e+01    7.108954e+03
  3.656019e+01    7.027897e+03
  3.658307e+01    6.978075e+03
  3.660596e+01    6.947702e+03
  3.662884e+01    6.925182e+03
  3.665173e+01    6.907500e+03
  3.667461e+01    6.905650e+03
  3.669750e+01    6.905339e+03
  3.672039e+01    6.902335e+03
  3.674327e+01    6.901548e+03
  3.676616e+01    6.896125e+03
  3.678904e+01    6.900858e+03
  3.681193e+01    6.915709e+03
  3.683481e+01    6.923734e+03
  3.685770e+01    6.923083e+03
  3.688058e+01    6.936191e+03
  3.690347e+01    6.941259e+03
  3.692635e+01    6.953507e+03
  3.694924e+01    6.956647e+03
  3.697212e+01    6.968557e+03
  3.699501e+01    6.989297e+03
  3.701790e+01    6.995631e+03
  3.704078e+01    7.010568e+03
  3.706367e+01    7.030800e+03
  3.708655e+01    7.053215e+03
  3.710944e+01    7.089555e+03
  3.713232e+01    7.115173e+03
  3.715521e+01    7.148990e+03
  3.717809e+01    7.191853e+03
  3.720098e+01    7.239205e+03
  3.722386e+01    7.293056e+03
  3.724675e+01    7.350810e+03
  3.726963e+01    7.435494e+03
  3.729252e+01    7.540304e+03
  3.731541e+01    7.666739e+03
  3.733829e+01    7.830196e+03
  3.736118e+01    8.053761e+03
  3.738406e+01    8.369981e+03
  3.740695e+01    8.825643e+03
  3.742983e+01    9.542188e+03
  3.745272e+01    1.075897e+04
  3.747560e+01    1.294250e+04
  3.749849e+01    1.707642e+04
  3.752137e+01    2.467714e+04
  3.754426e+01    3.690124e+04
  3.756714e+01    5.203528e+04
  3.759003e+01    6.377635e+04
  3.761291e+01    6.592490e+04
  3.763580e+01    5.815134e+04
  3.765869e+01    4.458218e+04
  3.768157e+01    3.092872e+04
  3.770446e+01    2.100155e+04
  3.772734e+01    1.515273e+04
  3.775023e+01    1.200577e+04
  3.777311e+01    1.029707e+04
  3.779600e+01    9.335125e+03
  3.781888e+01    8.736312e+03
  3.784177e+01    8.338328e+03
  3.786465e+01    8.062227e+03
  3.788754e+01    7.857850e+03
  3.791042e+01    7.704604e+03
  3.793331e+01    7.596653e+03
  3.795620e+01    7.496939e+03
  3.797908e+01    7.402454e+03
  3.800197e+01    7.343844e+03
  3.802485e+01    7.290638e+03
  3.804774e+01    7.243440e+03
  3.807062e+01    7.217427e+03
  3.809351e+01    7.187039e+03
  3.811639e+01    7.163107e+03
  3.813928e+01    7.141588e+03
  3.816216e+01    7.119955e+03
  3.818505e+01    7.101877e+03
  3.820793e+01    7.076849e+03
  3.823082e+01    7.060039e+03
  3.825371e+01    7.054280e+03
  3.827659e+01    7.048136e+03
  3.829948e+01    7.047262e+03
  3.832236e+01    7.045403e+03
  3.834525e+01    7.037196e+03
  3.836813e+01    7.034021e+03
  3.839102e+01    7.030930e+03
  3.841390e+01    7.031500e+03
  3.843679e+01    7.029831e+03
  3.845967e+01    7.032268e+03
  3.848256e+01    7.030170e+03
  3.850544e+01    7.039205e+03
  3.852833e+01    7.042234e+03
  3.855121e+01    7.035303e+03
  3.857410e+01    7.043201e+03
  3.859699e+01    7.059315e+03
  3.861987e+01    7.078976e+03
  3.864276e+01    7.106887e+03
  3.866564e+01    7.157844e+03
  3.868853e+01    7.278201e+03
  3.871141e+01    7.501981e+03
  3.873430e+01    7.884815e+03
  3.875718e+01    8.427068e+03
  3.878007e+01    8.978351e+03
  3.880295e+01    9.223411e+03
  3.882584e+01    9.079125e+03
  3.884872e+01    8.636358e+03
  3.887161e+01    8.085299e+03
  3.889450e+01    7.628469e+03
  3.891738e+01    7.329325e+03
  3.894027e+01    7.164093e+03
  3.896315e+01    7.076937e+03
  3.898604e+01    7.021606e+03
  3.900892e+01    6.991480e+03
  3.903181e+01    6.965771e+03
  3.905469e+01    6.946042e+03
  3.907758e+01    6.931683e+03
  3.910046e+01    6.922502e+03
  3.912335e+01    6.914255e+03
  3.914623e+01    6.906731e+03
  3.916912e+01    6.904367e+03
  3.919201e+01    6.911036e+03
  3.921489e+01    6.894427e+03
  3.923778e+01    6.882773e+03
  3.926066e+01    6.880560e+03
  3.928355e+01    6.875599e+03
  3.930643e+01    6.870642e+03
  3.932932e+01    6.867668e+03
  3.935220e+01    6.866359e+03
  3.937509e+01    6.874562e+03
  3.939797e+01    6.880327e+03
  3.942086e+01    6.878597e+03
  3.944374e+01    6.863294e+03
  3.946663e+01    6.859685e+03
  3.948951e+01    6.855753e+03
  3.951240e+01    6.848165e+03
  3.953529e+01    6.843419e+03
  3.955817e+01    6.841808e+03
  3.958106e+01    6.833474e+03
  3.960394e+01    6.823137e+03
  3.962683e+01    6.809412e+03
  3.964971e+01    6.799342e+03
  3.967260e+01    6.785109e+03
  3.969548e+01    6.769722e+03
  3.971837e+01    6.763212e+03
  3.974125e+01    6.748273e+03
  3.976414e+01    6.728633e+03
  3.978702e+01    6.726271e+03
  3.980991e+01    6.730018e+03
  3.983280e+01    6.739839e+03
  3.985568e+01    6.766449e+03
  3.987857e+01    6.827597e+03
  3.990145e+01    6.934603e+03
  3.992434e+01    7.055144e+03
  3.994722e+01    7.189310e+03
  3.997011e+01    7.256576e+03
  3.999299e+01    7.221955e+03
  4.001588e+01    7.108469e+03
  4.003876e+01    6.965110e+03
  4.006165e+01    6.850772e+03
  4.008453e+01    6.767547e+03
  4.010742e+01    6.717982e+03
  4.013031e+01    6.686673e+03
  4.015319e+01    6.669099e+03
  4.017608e+01    6.657750e+03
  4.019896e+01    6.649040e+03
  4.022185e+01    6.635068e+03
  4.024473e+01    6.626898e+03
  4.026762e+01    6.624231e+03
  4.029050e+01    6.625924e+03
  4.031339e+01    6.618123e+03
  4.033627e+01    6.613667e+03
  4.035916e+01    6.610321e+03
  4.038204e+01    6.606603e+03
  4.040493e+01    6.601235e+03
  4.042782e+01    6.599508e+03
  4.045070e+01    6.598825e+03
  4.047359e+01    6.594952e+03
  4.049647e+01    6.590501e+03
  4.051936e+01    6.588242e+03
  4.054224e+01    6.587114e+03
  4.056513e+01    6.585791e+03
  4.058801e+01    6.585988e+03
  4.061090e+01    6.582695e+03
  4.063378e+01    6.575368e+03
  4.065667e+01    6.582045e+03
  4.067955e+01    6.576725e+03
  4.070244e+01    6.579264e+03
  4.072532e+01    6.591205e+03
  4.074821e+01    6.599789e+03
  4.077110e+01    6.608102e+03
  4.079398e+01    6.618867e+03
  4.081687e+01    6.627232e+03
  4.083975e+01    6.640242e+03
  4.086264e+01    6.660997e+03
  4.088552e+01    6.679866e+03
  4.090841e+01    6.728379e+03
  4.093129e+01    6.793476e+03
  4.095418e+01    6.899620e+03
  4.097706e+01    7.087851e+03
  4.099995e+01    7.425421e+03
  4.102283e+01    8.065515e+03
  4.104572e+01    9.187123e+03
  4.106861e+01    1.076857e+04
  4.109149e+01    1.226940e+04
  4.111438e+01    1.294333e+04
  4.113726e+01    1.250428e+04
  4.116015e+01    1.127796e+04
  4.118303e+01    9.774064e+03
  4.120592e+01    8.507211e+03
  4.122880e+01    7.706282e+03
  4.125169e+01    7.276579e+03
  4.127457e+01    7.047608e+03
  4.129746e+01    6.927336e+03
  4.132034e+01    6.845128e+03
  4.134323e+01    6.792743e+03
  4.136612e+01    6.759977e+03
  4.138900e+01    6.726232e+03
  4.141189e+01    6.701363e+03
  4.143477e+01    6.680324e+03
  4.145766e+01    6.662854e+03
  4.148054e+01    6.643809e+03
  4.150343e+01    6.634573e+03
  4.152631e+01    6.623723e+03
  4.154920e+01    6.612588e+03
  4.157208e+01    6.602784e+03
  4.159497e+01    6.597346e+03
  4.161785e+01    6.593588e+03
  4.164074e+01    6.589738e+03
  4.166362e+01    6.585410e+03
  4.168651e+01    6.577404e+03
  4.170940e+01    6.573531e+03
  4.173228e+01    6.573639e+03
  4.175517e+01    6.576867e+03
  4.177805e+01    6.575105e+03
  4.180094e+01    6.579203e+03
  4.182382e+01    6.585755e+03
  4.184671e+01    6.594586e+03
  4.186959e+01    6.605720e+03
  4.189248e+01    6.616535e+03
  4.191536e+01    6.630472e+03
  4.193825e+01    6.644849e+03
  4.196113e+01    6.659499e+03
  4.198402e+01    6.675197e+03
  4.200691e+01    6.693836e+03
  4.202979e+01    6.707979e+03
  4.205268e+01    6.727505e+03
  4.207556e+01    6.745514e+03
  4.209845e+01    6.783552e+03
  4.212133e+01    6.862311e+03
  4.214422e+01    7.008982e+03
  4.216710e+01    7.271976e+03
  4.218999e+01    7.600024e+03
  4.221287e+01    7.860778e+03
  4.223576e+01    7.908594e+03
  4.225864e+01    7.725403e+03
  4.228153e+01    7.407174e+03
  4.230442e+01    7.073175e+03
  4.232730e+01    6.819327e+03
  4.235019e+01    6.664999e+03
  4.237307e+01    6.574432e+03
  4.239596e+01    6.516378e+03
  4.241884e+01    6.490296e+03
  4.244173e+01    6.469830e+03
  4.246461e+01    6.455782e+03
  4.248750e+01    6.437699e+03
  4.251038e+01    6.435083e+03
  4.253327e+01    6.427476e+03
  4.255615e+01    6.411634e+03
  4.257904e+01    6.406111e+03
  4.260192e+01    6.407326e+03
  4.262481e+01    6.406636e+03
  4.264770e+01    6.407624e+03
  4.267058e+01    6.408367e+03
  4.269347e+01    6.404234e+03
  4.271635e+01    6.396507e+03
  4.273924e+01    6.397547e+03
  4.276212e+01    6.397898e+03
  4.278501e+01    6.394635e+03
  4.280789e+01    6.391182e+03
  4.283078e+01    6.388045e+03
  4.285366e+01    6.388438e+03
  4.287655e+01    6.392042e+03
  4.289943e+01    6.395835e+03
  4.292232e+01    6.402036e+03
  4.294521e+01    6.425724e+03
  4.296809e+01    6.431875e+03
  4.299098e+01    6.439291e+03
  4.301386e+01    6.454846e+03
  4.303675e+01    6.471966e+03
  4.305963e+01    6.494862e+03
  4.308252e+01    6.520290e+03
  4.310540e+01    6.555743e+03
  4.312829e+01    6.587354e+03
  4.315117e+01    6.664787e+03
  4.317406e+01    6.785521e+03
  4.319694e+01    7.015880e+03
  4.321983e+01    7.451007e+03
  4.324272e+01    8.240158e+03
  4.326560e+01    9.450362e+03
  4.328849e+01    1.080405e+04
  4.331137e+01    1.167833e+04
  4.333426e+01    1.164727e+04
  4.335714e+01    1.085217e+04
  4.338003e+01    9.623955e+03
  4.340291e+01    8.451192e+03
  4.342580e+01    7.652736e+03
  4.344868e+01    7.197138e+03
  4.347157e+01    6.973471e+03
  4.349445e+01    6.865342e+03
  4.351734e+01    6.832182e+03
  4.354022e+01    6.824784e+03
  4.356311e+01    6.868865e+03
  4.358600e+01    6.934265e+03
  4.360888e+01    7.033594e+03
  4.363177e+01    7.205859e+03
  4.365465e+01    7.464971e+03
  4.367754e+01    7.878003e+03
  4.370042e+01    8.564692e+03
  4.372331e+01    9.713347e+03
  4.374619e+01    1.159698e+04
  4.376908e+01    1.429759e+04
  4.379196e+01    1.734893e+04
  4.381485e+01    1.975463e+04
  4.383773e+01    2.087761e+04
  4.386062e+01    2.035559e+04
  4.388351e+01    1.839158e+04
  4.390639e+01    1.558337e+04
  4.392928e+01    1.295008e+04
  4.395216e+01    1.098131e+04
  4.397505e+01    9.617664e+03
  4.399793e+01    8.704387e+03
  4.402082e+01    8.108209e+03
  4.404370e+01    7.715871e+03
  4.406659e+01    7.459791e+03
  4.408947e+01    7.301282e+03
  4.411236e+01    7.228558e+03
  4.413524e+01    7.208141e+03
  4.415813e+01    7.235352e+03
  4.418102e+01    7.334400e+03
  4.420390e+01    7.527703e+03
  4.422679e+01    7.856816e+03
  4.424967e+01    8.454532e+03
  4.427256e+01    9.590094e+03
  4.429544e+01    1.173112e+04
  4.431833e+01    1.551324e+04
  4.434121e+01    2.095604e+04
  4.436410e+01    2.626846e+04
  4.438698e+01    2.873496e+04
  4.440987e+01    2.744074e+04
  4.443275e+01    2.329820e+04
  4.445564e+01    1.796902e+04
  4.447853e+01    1.338907e+04
  4.450141e+01    1.042803e+04
  4.452430e+01    8.785709e+03
  4.454718e+01    7.895550e+03
  4.457007e+01    7.392092e+03
  4.459295e+01    7.101678e+03
  4.461584e+01    6.901708e+03
  4.463872e+01    6.761960e+03
  4.466161e+01    6.656492e+03
  4.468449e+01    6.576378e+03
  4.470738e+01    6.515966e+03
  4.473026e+01    6.484619e+03
  4.475315e+01    6.455913e+03
  4.477603e+01    6.416918e+03
  4.479892e+01    6.389735e+03
  4.482181e+01    6.379476e+03
  4.484469e+01    6.355776e+03
  4.486758e+01    6.339905e+03
  4.489046e+01    6.317412e+03
  4.491335e+01    6.311574e+03
  4.493623e+01    6.326811e+03
  4.495912e+01    6.313632e+03
  4.498200e+01    6.307724e+03
  4.500489e+01    6.300981e+03
  4.502777e+01    6.297918e+03
  4.505066e+01    6.298320e+03
  4.507354e+01    6.302037e+03
  4.509643e+01    6.305087e+03
  4.511932e+01    6.304979e+03
  4.514220e+01    6.314054e+03
  4.516509e+01    6.327828e+03
  4.518797e+01    6.349848e+03
  4.521086e+01    6.380151e+03
  4.523374e+01    6.422713e+03
  4.525663e+01    6.499579e+03
  4.527951e+01    6.612205e+03
  4.530240e+01    6.811231e+03
  4.532528e+01    7.182528e+03
  4.534817e+01    7.898353e+03
  4.537105e+01    9.101400e+03
  4.539394e+01    1.068032e+04
  4.541683e+01    1.205454e+04
  4.543971e+01    1.250036e+04
  4.546260e+01    1.194161e+04
  4.548548e+01    1.067620e+04
  4.550837e+01    9.197721e+03
  4.553125e+01    7.998344e+03
  4.555414e+01    7.246229e+03
  4.557702e+01    6.841568e+03
  4.559991e+01    6.614246e+03
  4.562279e+01    6.477877e+03
  4.564568e+01    6.411277e+03
  4.566856e+01    6.360607e+03
  4.569145e+01    6.341370e+03
  4.571433e+01    6.323078e+03
  4.573722e+01    6.305575e+03
  4.576011e+01    6.293054e+03
  4.578299e+01    6.297352e+03
  4.580588e+01    6.293677e+03
  4.582876e+01    6.285407e+03
  4.585165e+01    6.294788e+03
  4.587453e+01    6.296180e+03
  4.589742e+01    6.300163e+03
  4.592030e+01    6.302502e+03
  4.594319e+01    6.313292e+03
  4.596607e+01    6.320099e+03
  4.598896e+01    6.314073e+03
  4.601184e+01    6.299773e+03
  4.603473e+01    6.276420e+03
  4.605762e+01    6.272427e+03
  4.608050e+01    6.243472e+03
  4.610339e+01    6.230728e+03
  4.612627e+01    6.218474e+03
  4.614916e+01    6.190881e+03
  4.617204e+01    6.181486e+03
  4.619493e+01    6.167054e+03
  4.621781e+01    6.161518e+03
  4.624070e+01    6.165096e+03
  4.626358e+01    6.183604e+03
  4.628647e+01    6.199184e+03
  4.630935e+01    6.227432e+03
  4.633224e+01    6.300394e+03
  4.635513e+01    6.421002e+03
  4.637801e+01    6.656629e+03
  4.640090e+01    7.050379e+03
  4.642378e+01    7.553653e+03
  4.644667e+01    7.966406e+03
  4.646955e+01    8.085884e+03
  4.649244e+01    7.918945e+03
  4.651532e+01    7.527960e+03
  4.653821e+01    7.084786e+03
  4.656109e+01    6.741262e+03
  4.658398e+01    6.540960e+03
  4.660686e+01    6.436076e+03
  4.662975e+01    6.367615e+03
  4.665263e+01    6.337045e+03
  4.667552e+01    6.317456e+03
  4.669841e+01    6.310904e+03
  4.672129e+01    6.300523e+03
  4.674418e+01    6.287632e+03
  4.676706e+01    6.277988e+03
  4.678995e+01    6.296165e+03
  4.681283e+01    6.283977e+03
  4.683572e+01    6.272460e+03
  4.685860e+01    6.268454e+03
  4.688149e+01    6.260336e+03
  4.690437e+01    6.248126e+03
  4.692726e+01    6.245488e+03
  4.695014e+01    6.240099e+03
  4.697303e+01    6.236881e+03
  4.699592e+01    6.250277e+03
  4.701880e+01    6.260115e+03
  4.704169e+01    6.270820e+03
  4.706457e+01    6.281305e+03
  4.708746e+01    6.286024e+03
  4.711034e+01    6.302910e+03
  4.713323e+01    6.315677e+03
  4.715611e+01    6.306947e+03
  4.717900e+01    6.320474e+03
  4.720188e+01    6.333029e+03
  4.722477e+01    6.355807e+03
  4.724765e+01    6.394412e+03
  4.727054e+01    6.425883e+03
  4.729343e+01    6.455458e+03
  4.731631e+01    6.493791e+03
  4.733920e+01    6.543475e+03
  4.736208e+01    6.655478e+03
  4.738497e+01    6.844010e+03
  4.740785e+01    7.130852e+03
  4.743074e+01    7.507213e+03
  4.745362e+01    7.810958e+03
  4.747651e+01    7.966120e+03
  4.749939e+01    7.905909e+03
  4.752228e+01    7.681481e+03
  4.754516e+01    7.434478e+03
  4.756805e+01    7.183226e+03
  4.759094e+01    7.132116e+03
  4.761382e+01    7.136357e+03
  4.763671e+01    7.117054e+03
  4.765959e+01    7.082219e+03
  4.768248e+01    7.062442e+03
  4.770536e+01    7.024774e+03
  4.772825e+01    6.928146e+03
  4.775113e+01    6.958084e+03
  4.777402e+01    6.821322e+03
  4.779690e+01    6.802883e+03
  4.781979e+01    6.566108e+03
  4.784267e+01    6.339939e+03
  4.786556e+01    5.447985e+03
  4.788844e+01    2.646646e+03