File: Output/ROCK_XRD/WAM39B_integrated/wam39b_fin_palier_1_xrd_000001_integrated.dat
# == pyFAI calibration ==
# Distance Sample to Detector: 0.261615 m
# PONI: 2.023e-01, 2.348e-01 m
# Rotations: -0.026380 0.002005 0.000000 rad
#
# == Fit2d calibration ==
# Distance Sample-beamCenter: 261.707 mm
# Center: x=6119.331, y=5134.776 pix
# Tilt: 1.516 deg  TiltPlanRot: 4.347 deg
#
# Detector Rayonix SX165	 PixelSize= 3.950e-05, 3.950e-05 m
#    Detector has a mask: True
#    Detector has a dark current: False
#    detector has a flat field: False
#
# Wavelength: 1.12713e-10 m
# Mask applied: from detector
# Dark current applied: False
# Flat field applied: False
# Polarization factor: None
# Normalization factor: 1.0
# --> ROCK\\WAM39B_integrated\wam39b_fin_palier_1_xrd_000001_integrated.dat
#       2th_deg             I
  2.502596e+01    4.794013e+03
  2.504885e+01    1.259213e+04
  2.507173e+01    1.695750e+04
  2.509462e+01    1.802738e+04
  2.511750e+01    1.973443e+04
  2.514039e+01    2.043246e+04
  2.516327e+01    2.032343e+04
  2.518616e+01    2.011641e+04
  2.520905e+01    1.998357e+04
  2.523193e+01    1.975079e+04
  2.525482e+01    1.983198e+04
  2.527770e+01    2.020038e+04
  2.530059e+01    2.011127e+04
  2.532347e+01    1.989700e+04
  2.534636e+01    1.970059e+04
  2.536924e+01    1.957780e+04
  2.539213e+01    1.952865e+04
  2.541501e+01    1.949232e+04
  2.543790e+01    1.946677e+04
  2.546078e+01    1.947281e+04
  2.548367e+01    1.941196e+04
  2.550656e+01    1.920666e+04
  2.552944e+01    1.903891e+04
  2.555233e+01    1.920395e+04
  2.557521e+01    1.927200e+04
  2.559810e+01    1.918299e+04
  2.562098e+01    1.916372e+04
  2.564387e+01    1.918194e+04
  2.566675e+01    1.919504e+04
  2.568964e+01    1.910662e+04
  2.571252e+01    1.903109e+04
  2.573541e+01    1.902705e+04
  2.575829e+01    1.897714e+04
  2.578118e+01    1.887171e+04
  2.580407e+01    1.883325e+04
  2.582695e+01    1.882800e+04
  2.584984e+01    1.881081e+04
  2.587272e+01    1.879654e+04
  2.589561e+01    1.886250e+04
  2.591849e+01    1.886247e+04
  2.594138e+01    1.890761e+04
  2.596426e+01    1.902592e+04
  2.598715e+01    1.907107e+04
  2.601003e+01    1.924261e+04
  2.603292e+01    1.940865e+04
  2.605580e+01    1.963269e+04
  2.607869e+01    2.000452e+04
  2.610157e+01    2.048345e+04
  2.612446e+01    2.120334e+04
  2.614735e+01    2.231468e+04
  2.617023e+01    2.404539e+04
  2.619312e+01    2.689143e+04
  2.621600e+01    3.160940e+04
  2.623889e+01    3.899378e+04
  2.626177e+01    4.908260e+04
  2.628466e+01    5.914864e+04
  2.630754e+01    6.450467e+04
  2.633043e+01    6.209683e+04
  2.635331e+01    5.307734e+04
  2.637620e+01    4.192717e+04
  2.639908e+01    3.286069e+04
  2.642197e+01    2.710085e+04
  2.644486e+01    2.385885e+04
  2.646774e+01    2.198958e+04
  2.649063e+01    2.069084e+04
  2.651351e+01    1.985296e+04
  2.653640e+01    1.925250e+04
  2.655928e+01    1.882382e+04
  2.658217e+01    1.849423e+04
  2.660505e+01    1.824650e+04
  2.662794e+01    1.805878e+04
  2.665082e+01    1.788252e+04
  2.667371e+01    1.775040e+04
  2.669659e+01    1.763273e+04
  2.671948e+01    1.753146e+04
  2.674237e+01    1.744829e+04
  2.676525e+01    1.736423e+04
  2.678814e+01    1.728414e+04
  2.681102e+01    1.721579e+04
  2.683391e+01    1.713533e+04
  2.685679e+01    1.707501e+04
  2.687968e+01    1.703690e+04
  2.690256e+01    1.694511e+04
  2.692545e+01    1.689636e+04
  2.694833e+01    1.682773e+04
  2.697122e+01    1.676074e+04
  2.699410e+01    1.671306e+04
  2.701699e+01    1.670821e+04
  2.703988e+01    1.663345e+04
  2.706276e+01    1.658148e+04
  2.708565e+01    1.655504e+04
  2.710853e+01    1.650643e+04
  2.713142e+01    1.645564e+04
  2.715430e+01    1.641638e+04
  2.717719e+01    1.636397e+04
  2.720007e+01    1.628951e+04
  2.722296e+01    1.624149e+04
  2.724584e+01    1.618158e+04
  2.726873e+01    1.616688e+04
  2.729161e+01    1.613334e+04
  2.731450e+01    1.608480e+04
  2.733738e+01    1.602872e+04
  2.736027e+01    1.597463e+04
  2.738316e+01    1.593495e+04
  2.740604e+01    1.589598e+04
  2.742893e+01    1.586757e+04
  2.745181e+01    1.584865e+04
  2.747470e+01    1.580835e+04
  2.749758e+01    1.577230e+04
  2.752047e+01    1.573109e+04
  2.754335e+01    1.570538e+04
  2.756624e+01    1.569898e+04
  2.758912e+01    1.567842e+04
  2.761201e+01    1.563883e+04
  2.763489e+01    1.560707e+04
  2.765778e+01    1.560856e+04
  2.768067e+01    1.561301e+04
  2.770355e+01    1.563151e+04
  2.772644e+01    1.563800e+04
  2.774932e+01    1.567011e+04
  2.777221e+01    1.576430e+04
  2.779509e+01    1.594248e+04
  2.781798e+01    1.626789e+04
  2.784086e+01    1.679810e+04
  2.786375e+01    1.766927e+04
  2.788663e+01    1.882044e+04
  2.790952e+01    1.991901e+04
  2.793240e+01    2.043327e+04
  2.795529e+01    2.000791e+04
  2.797818e+01    1.888493e+04
  2.800106e+01    1.761776e+04
  2.802395e+01    1.660815e+04
  2.804683e+01    1.594793e+04
  2.806972e+01    1.553910e+04
  2.809260e+01    1.527336e+04
  2.811549e+01    1.509248e+04
  2.813837e+01    1.496838e+04
  2.816126e+01    1.485226e+04
  2.818414e+01    1.474989e+04
  2.820703e+01    1.466656e+04
  2.822991e+01    1.458794e+04
  2.825280e+01    1.452334e+04
  2.827568e+01    1.447688e+04
  2.829857e+01    1.442569e+04
  2.832146e+01    1.437235e+04
  2.834434e+01    1.431729e+04
  2.836723e+01    1.427041e+04
  2.839011e+01    1.422669e+04
  2.841300e+01    1.417583e+04
  2.843588e+01    1.413963e+04
  2.845877e+01    1.408626e+04
  2.848165e+01    1.403850e+04
  2.850454e+01    1.400485e+04
  2.852742e+01    1.396236e+04
  2.855031e+01    1.392901e+04
  2.857319e+01    1.387485e+04
  2.859608e+01    1.382211e+04
  2.861897e+01    1.377879e+04
  2.864185e+01    1.373545e+04
  2.866474e+01    1.369112e+04
  2.868762e+01    1.362296e+04
  2.871051e+01    1.357312e+04
  2.873339e+01    1.353326e+04
  2.875628e+01    1.347886e+04
  2.877916e+01    1.343834e+04
  2.880205e+01    1.338989e+04
  2.882493e+01    1.333679e+04
  2.884782e+01    1.328803e+04
  2.887070e+01    1.324398e+04
  2.889359e+01    1.319785e+04
  2.891648e+01    1.314904e+04
  2.893936e+01    1.311198e+04
  2.896225e+01    1.306273e+04
  2.898513e+01    1.301119e+04
  2.900802e+01    1.296853e+04
  2.903090e+01    1.290615e+04
  2.905379e+01    1.284488e+04
  2.907667e+01    1.280883e+04
  2.909956e+01    1.276538e+04
  2.912244e+01    1.272571e+04
  2.914533e+01    1.268977e+04
  2.916821e+01    1.265675e+04
  2.919110e+01    1.261538e+04
  2.921398e+01    1.257955e+04
  2.923687e+01    1.255796e+04
  2.925976e+01    1.252527e+04
  2.928264e+01    1.249916e+04
  2.930553e+01    1.249327e+04
  2.932841e+01    1.250350e+04
  2.935130e+01    1.254407e+04
  2.937418e+01    1.265448e+04
  2.939707e+01    1.289037e+04
  2.941995e+01    1.323311e+04
  2.944284e+01    1.365615e+04
  2.946572e+01    1.399565e+04
  2.948861e+01    1.399890e+04
  2.951149e+01    1.367196e+04
  2.953438e+01    1.319067e+04
  2.955727e+01    1.271827e+04
  2.958015e+01    1.236728e+04
  2.960304e+01    1.215378e+04
  2.962592e+01    1.201648e+04
  2.964881e+01    1.191461e+04
  2.967169e+01    1.183829e+04
  2.969458e+01    1.179217e+04
  2.971746e+01    1.173959e+04
  2.974035e+01    1.169246e+04
  2.976323e+01    1.165440e+04
  2.978612e+01    1.162796e+04
  2.980900e+01    1.159867e+04
  2.983189e+01    1.156818e+04
  2.985478e+01    1.154941e+04
  2.987766e+01    1.152286e+04
  2.990055e+01    1.150945e+04
  2.992343e+01    1.150155e+04
  2.994632e+01    1.148680e+04
  2.996920e+01    1.148263e+04
  2.999209e+01    1.149431e+04
  3.001497e+01    1.150728e+04
  3.003786e+01    1.151971e+04
  3.006074e+01    1.153341e+04
  3.008363e+01    1.154848e+04
  3.010651e+01    1.157737e+04
  3.012940e+01    1.162835e+04
  3.015228e+01    1.166500e+04
  3.017517e+01    1.172847e+04
  3.019806e+01    1.184755e+04
  3.022094e+01    1.198778e+04
  3.024383e+01    1.218419e+04
  3.026671e+01    1.249178e+04
  3.028960e+01    1.296401e+04
  3.031248e+01    1.373574e+04
  3.033537e+01    1.505481e+04
  3.035825e+01    1.731676e+04
  3.038114e+01    2.140355e+04
  3.040402e+01    2.866930e+04
  3.042691e+01    3.995811e+04
  3.044979e+01    5.379175e+04
  3.047268e+01    6.406329e+04
  3.049557e+01    6.522486e+04
  3.051845e+01    5.670521e+04
  3.054134e+01    4.260284e+04
  3.056422e+01    3.009313e+04
  3.058711e+01    2.193154e+04
  3.060999e+01    1.752213e+04
  3.063288e+01    1.517112e+04
  3.065576e+01    1.384096e+04
  3.067865e+01    1.306426e+04
  3.070153e+01    1.260845e+04
  3.072442e+01    1.235062e+04
  3.074730e+01    1.223747e+04
  3.077019e+01    1.227358e+04
  3.079308e+01    1.251691e+04
  3.081596e+01    1.303527e+04
  3.083885e+01    1.406504e+04
  3.086173e+01    1.595130e+04
  3.088462e+01    1.909371e+04
  3.090750e+01    2.339106e+04
  3.093039e+01    2.759653e+04
  3.095327e+01    2.959026e+04
  3.097616e+01    2.820964e+04
  3.099904e+01    2.428118e+04
  3.102193e+01    1.978379e+04
  3.104481e+01    1.621565e+04
  3.106770e+01    1.393199e+04
  3.109059e+01    1.260015e+04
  3.111347e+01    1.184658e+04
  3.113636e+01    1.139808e+04
  3.115924e+01    1.111118e+04
  3.118213e+01    1.091802e+04
  3.120501e+01    1.077777e+04
  3.122790e+01    1.066516e+04
  3.125078e+01    1.057719e+04
  3.127367e+01    1.050603e+04
  3.129655e+01    1.044785e+04
  3.131944e+01    1.039692e+04
  3.134232e+01    1.035129e+04
  3.136521e+01    1.031791e+04
  3.138809e+01    1.027862e+04
  3.141098e+01    1.024308e+04
  3.143387e+01    1.021856e+04
  3.145675e+01    1.019382e+04
  3.147964e+01    1.016823e+04
  3.150252e+01    1.013889e+04
  3.152541e+01    1.011206e+04
  3.154829e+01    1.007261e+04
  3.157118e+01    1.004608e+04
  3.159406e+01    1.002735e+04
  3.161695e+01    1.000148e+04
  3.163983e+01    9.979870e+03
  3.166272e+01    9.964736e+03
  3.168560e+01    9.944434e+03
  3.170849e+01    9.923227e+03
  3.173138e+01    9.904566e+03
  3.175426e+01    9.881798e+03
  3.177715e+01    9.862587e+03
  3.180003e+01    9.848615e+03
  3.182292e+01    9.830066e+03
  3.184580e+01    9.813747e+03
  3.186869e+01    9.802064e+03
  3.189157e+01    9.781300e+03
  3.191446e+01    9.761990e+03
  3.193734e+01    9.750658e+03
  3.196023e+01    9.737236e+03
  3.198311e+01    9.713158e+03
  3.200600e+01    9.692448e+03
  3.202889e+01    9.678703e+03
  3.205177e+01    9.673969e+03
  3.207466e+01    9.657717e+03
  3.209754e+01    9.636196e+03
  3.212043e+01    9.634482e+03
  3.214331e+01    9.631182e+03
  3.216620e+01    9.636532e+03
  3.218908e+01    9.640192e+03
  3.221197e+01    9.653652e+03
  3.223485e+01    9.700465e+03
  3.225774e+01    9.803111e+03
  3.228062e+01    9.981881e+03
  3.230351e+01    1.027840e+04
  3.232639e+01    1.067046e+04
  3.234928e+01    1.102595e+04
  3.237217e+01    1.114620e+04
  3.239505e+01    1.093707e+04
  3.241794e+01    1.054917e+04
  3.244082e+01    1.014321e+04
  3.246371e+01    9.834063e+03
  3.248659e+01    9.639081e+03
  3.250948e+01    9.520026e+03
  3.253236e+01    9.447935e+03
  3.255525e+01    9.396354e+03
  3.257813e+01    9.357775e+03
  3.260102e+01    9.334696e+03
  3.262390e+01    9.316140e+03
  3.264679e+01    9.294917e+03
  3.266968e+01    9.269743e+03
  3.269256e+01    9.249617e+03
  3.271545e+01    9.234526e+03
  3.273833e+01    9.222776e+03
  3.276122e+01    9.197927e+03
  3.278410e+01    9.175232e+03
  3.280699e+01    9.166769e+03
  3.282987e+01    9.158045e+03
  3.285276e+01    9.142534e+03
  3.287564e+01    9.132328e+03
  3.289853e+01    9.125509e+03
  3.292141e+01    9.098442e+03
  3.294430e+01    9.084765e+03
  3.296719e+01    9.071553e+03
  3.299007e+01    9.059348e+03
  3.301296e+01    9.047269e+03
  3.303584e+01    9.036123e+03
  3.305873e+01    9.021180e+03
  3.308161e+01    9.006333e+03
  3.310450e+01    8.999550e+03
  3.312738e+01    8.999629e+03
  3.315027e+01    8.990723e+03
  3.317315e+01    8.976801e+03
  3.319604e+01    8.967902e+03
  3.321892e+01    8.956361e+03
  3.324181e+01    8.950738e+03
  3.326469e+01    8.940780e+03
  3.328758e+01    8.946059e+03
  3.331047e+01    8.949553e+03
  3.333335e+01    8.941695e+03
  3.335624e+01    8.942058e+03
  3.337912e+01    8.952140e+03
  3.340201e+01    8.959322e+03
  3.342489e+01    8.975180e+03
  3.344778e+01    8.994023e+03
  3.347066e+01    9.025045e+03
  3.349355e+01    9.079934e+03
  3.351643e+01    9.155598e+03
  3.353932e+01    9.275294e+03
  3.356220e+01    9.489853e+03
  3.358509e+01    9.864355e+03
  3.360798e+01    1.053331e+04
  3.363086e+01    1.175491e+04
  3.365375e+01    1.385803e+04
  3.367663e+01    1.690504e+04
  3.369952e+01    2.019755e+04
  3.372240e+01    2.219044e+04
  3.374529e+01    2.173765e+04
  3.376817e+01    1.919858e+04
  3.379106e+01    1.592042e+04
  3.381394e+01    1.311802e+04
  3.383683e+01    1.125868e+04
  3.385971e+01    1.018582e+04
  3.388260e+01    9.597484e+03
  3.390549e+01    9.263792e+03
  3.392837e+01    9.053147e+03
  3.395126e+01    8.907604e+03
  3.397414e+01    8.815734e+03
  3.399703e+01    8.735471e+03
  3.401991e+01    8.676882e+03
  3.404280e+01    8.628435e+03
  3.406568e+01    8.585978e+03
  3.408857e+01    8.552562e+03
  3.411145e+01    8.521893e+03
  3.413434e+01    8.494182e+03
  3.415722e+01    8.471442e+03
  3.418011e+01    8.453509e+03
  3.420300e+01    8.434021e+03
  3.422588e+01    8.412095e+03
  3.424877e+01    8.403631e+03
  3.427165e+01    8.389772e+03
  3.429454e+01    8.368215e+03
  3.431742e+01    8.354876e+03
  3.434031e+01    8.343358e+03
  3.436319e+01    8.329638e+03
  3.438608e+01    8.307901e+03
  3.440896e+01    8.296519e+03
  3.443185e+01    8.285333e+03
  3.445473e+01    8.270728e+03
  3.447762e+01    8.257247e+03
  3.450050e+01    8.253521e+03
  3.452339e+01    8.232950e+03
  3.454628e+01    8.216787e+03
  3.456916e+01    8.207515e+03
  3.459205e+01    8.189576e+03
  3.461493e+01    8.175387e+03
  3.463782e+01    8.163233e+03
  3.466070e+01    8.152656e+03
  3.468359e+01    8.147015e+03
  3.470647e+01    8.134157e+03
  3.472936e+01    8.118487e+03
  3.475224e+01    8.108041e+03
  3.477513e+01    8.095071e+03
  3.479801e+01    8.084062e+03
  3.482090e+01    8.081120e+03
  3.484379e+01    8.067832e+03
  3.486667e+01    8.057746e+03
  3.488956e+01    8.047422e+03
  3.491244e+01    8.031814e+03
  3.493533e+01    8.023399e+03
  3.495821e+01    8.012283e+03
  3.498110e+01    8.009833e+03
  3.500398e+01    7.999248e+03
  3.502687e+01    7.982796e+03
  3.504975e+01    7.977229e+03
  3.507264e+01    7.976527e+03
  3.509552e+01    7.962413e+03
  3.511841e+01    7.958042e+03
  3.514130e+01    7.947648e+03
  3.516418e+01    7.939590e+03
  3.518707e+01    7.929321e+03
  3.520995e+01    7.929785e+03
  3.523284e+01    7.927044e+03
  3.525572e+01    7.907099e+03
  3.527861e+01    7.885817e+03
  3.530149e+01    7.879183e+03
  3.532438e+01    7.865917e+03
  3.534726e+01    7.854048e+03
  3.537015e+01    7.846734e+03
  3.539303e+01    7.832861e+03
  3.541592e+01    7.823338e+03
  3.543880e+01    7.814646e+03
  3.546169e+01    7.805472e+03
  3.548458e+01    7.798704e+03
  3.550746e+01    7.788794e+03
  3.553035e+01    7.781192e+03
  3.555323e+01    7.766792e+03
  3.557612e+01    7.754019e+03
  3.559900e+01    7.747829e+03
  3.562189e+01    7.739521e+03
  3.564477e+01    7.727550e+03
  3.566766e+01    7.722517e+03
  3.569054e+01    7.716558e+03
  3.571343e+01    7.712929e+03
  3.573631e+01    7.716988e+03
  3.575920e+01    7.712484e+03
  3.578209e+01    7.711193e+03
  3.580497e+01    7.707081e+03
  3.582786e+01    7.699564e+03
  3.585074e+01    7.702422e+03
  3.587363e+01    7.701823e+03
  3.589651e+01    7.702737e+03
  3.591940e+01    7.713846e+03
  3.594228e+01    7.718753e+03
  3.596517e+01    7.724861e+03
  3.598805e+01    7.737202e+03
  3.601094e+01    7.750769e+03
  3.603382e+01    7.766517e+03
  3.605671e+01    7.781414e+03
  3.607960e+01    7.809575e+03
  3.610248e+01    7.846054e+03
  3.612537e+01    7.897384e+03
  3.614825e+01    7.989680e+03
  3.617114e+01    8.151327e+03
  3.619402e+01    8.439930e+03
  3.621691e+01    8.954298e+03
  3.623979e+01    9.833280e+03
  3.626268e+01    1.108921e+04
  3.628556e+01    1.235986e+04
  3.630845e+01    1.303150e+04
  3.633133e+01    1.275148e+04
  3.635422e+01    1.171668e+04
  3.637710e+01    1.044089e+04
  3.639999e+01    9.382023e+03
  3.642288e+01    8.704527e+03
  3.644576e+01    8.319784e+03
  3.646865e+01    8.119314e+03
  3.649153e+01    8.011576e+03
  3.651442e+01    7.939989e+03
  3.653730e+01    7.913293e+03
  3.656019e+01    7.897688e+03
  3.658307e+01    7.873236e+03
  3.660596e+01    7.858247e+03
  3.662884e+01    7.848849e+03
  3.665173e+01    7.842182e+03
  3.667461e+01    7.848157e+03
  3.669750e+01    7.847944e+03
  3.672039e+01    7.848730e+03
  3.674327e+01    7.852180e+03
  3.676616e+01    7.856677e+03
  3.678904e+01    7.865814e+03
  3.681193e+01    7.878864e+03
  3.683481e+01    7.889613e+03
  3.685770e+01    7.896103e+03
  3.688058e+01    7.918956e+03
  3.690347e+01    7.938332e+03
  3.692635e+01    7.955621e+03
  3.694924e+01    7.966344e+03
  3.697212e+01    7.980086e+03
  3.699501e+01    8.009389e+03
  3.701790e+01    8.038827e+03
  3.704078e+01    8.061918e+03
  3.706367e+01    8.087553e+03
  3.708655e+01    8.122493e+03
  3.710944e+01    8.178429e+03
  3.713232e+01    8.223007e+03
  3.715521e+01    8.287434e+03
  3.717809e+01    8.362498e+03
  3.720098e+01    8.448442e+03
  3.722386e+01    8.560816e+03
  3.724675e+01    8.686862e+03
  3.726963e+01    8.853490e+03
  3.729252e+01    9.079621e+03
  3.731541e+01    9.387519e+03
  3.733829e+01    9.833970e+03
  3.736118e+01    1.051803e+04
  3.738406e+01    1.164444e+04
  3.740695e+01    1.364929e+04
  3.742983e+01    1.734427e+04
  3.745272e+01    2.413155e+04
  3.747560e+01    3.558872e+04
  3.749849e+01    5.134685e+04
  3.752137e+01    6.625773e+04
  3.754426e+01    7.275016e+04
  3.756714e+01    6.771941e+04
  3.759003e+01    5.438535e+04
  3.761291e+01    3.889232e+04
  3.763580e+01    2.649960e+04
  3.765869e+01    1.875102e+04
  3.768157e+01    1.447751e+04
  3.770446e+01    1.217457e+04
  3.772734e+01    1.088239e+04
  3.775023e+01    1.009965e+04
  3.777311e+01    9.588663e+03
  3.779600e+01    9.247364e+03
  3.781888e+01    8.996248e+03
  3.784177e+01    8.814891e+03
  3.786465e+01    8.669040e+03
  3.788754e+01    8.557971e+03
  3.791042e+01    8.475951e+03
  3.793331e+01    8.409688e+03
  3.795620e+01    8.349653e+03
  3.797908e+01    8.289246e+03
  3.800197e+01    8.229758e+03
  3.802485e+01    8.188702e+03
  3.804774e+01    8.151306e+03
  3.807062e+01    8.134138e+03
  3.809351e+01    8.118319e+03
  3.811639e+01    8.099909e+03
  3.813928e+01    8.071671e+03
  3.816216e+01    8.047248e+03
  3.818505e+01    8.034552e+03
  3.820793e+01    8.019932e+03
  3.823082e+01    7.996531e+03
  3.825371e+01    7.984741e+03
  3.827659e+01    7.987235e+03
  3.829948e+01    7.993544e+03
  3.832236e+01    7.982924e+03
  3.834525e+01    7.963292e+03
  3.836813e+01    7.966158e+03
  3.839102e+01    7.963492e+03
  3.841390e+01    7.957912e+03
  3.843679e+01    7.956313e+03
  3.845967e+01    7.964336e+03
  3.848256e+01    7.966131e+03
  3.850544e+01    7.982238e+03
  3.852833e+01    8.002442e+03
  3.855121e+01    8.021927e+03
  3.857410e+01    8.055727e+03
  3.859699e+01    8.104718e+03
  3.861987e+01    8.210163e+03
  3.864276e+01    8.414284e+03
  3.866564e+01    8.768985e+03
  3.868853e+01    9.310771e+03
  3.871141e+01    9.904085e+03
  3.873430e+01    1.028844e+04
  3.875718e+01    1.025999e+04
  3.878007e+01    9.859175e+03
  3.880295e+01    9.266538e+03
  3.882584e+01    8.746728e+03
  3.884872e+01    8.382345e+03
  3.887161e+01    8.179587e+03
  3.889450e+01    8.076022e+03
  3.891738e+01    8.011483e+03
  3.894027e+01    7.966254e+03
  3.896315e+01    7.941201e+03
  3.898604e+01    7.927917e+03
  3.900892e+01    7.914101e+03
  3.903181e+01    7.900669e+03
  3.905469e+01    7.889505e+03
  3.907758e+01    7.878327e+03
  3.910046e+01    7.868742e+03
  3.912335e+01    7.862083e+03
  3.914623e+01    7.857291e+03
  3.916912e+01    7.859153e+03
  3.919201e+01    7.864467e+03
  3.921489e+01    7.842856e+03
  3.923778e+01    7.834652e+03
  3.926066e+01    7.833263e+03
  3.928355e+01    7.827619e+03
  3.930643e+01    7.824312e+03
  3.932932e+01    7.823784e+03
  3.935220e+01    7.821907e+03
  3.937509e+01    7.811160e+03
  3.939797e+01    7.797525e+03
  3.942086e+01    7.790715e+03
  3.944374e+01    7.770110e+03
  3.946663e+01    7.763405e+03
  3.948951e+01    7.756450e+03
  3.951240e+01    7.749412e+03
  3.953529e+01    7.743657e+03
  3.955817e+01    7.738980e+03
  3.958106e+01    7.732657e+03
  3.960394e+01    7.724333e+03
  3.962683e+01    7.712375e+03
  3.964971e+01    7.701164e+03
  3.967260e+01    7.698126e+03
  3.969548e+01    7.699581e+03
  3.971837e+01    7.697441e+03
  3.974125e+01    7.698110e+03
  3.976414e+01    7.700840e+03
  3.978702e+01    7.728548e+03
  3.980991e+01    7.773661e+03
  3.983280e+01    7.862095e+03
  3.985568e+01    8.007780e+03
  3.987857e+01    8.169186e+03
  3.990145e+01    8.279240e+03
  3.992434e+01    8.248886e+03
  3.994722e+01    8.136634e+03
  3.997011e+01    7.977760e+03
  3.999299e+01    7.835088e+03
  4.001588e+01    7.747732e+03
  4.003876e+01    7.682688e+03
  4.006165e+01    7.651328e+03
  4.008453e+01    7.644764e+03
  4.010742e+01    7.628567e+03
  4.013031e+01    7.615908e+03
  4.015319e+01    7.606520e+03
  4.017608e+01    7.599908e+03
  4.019896e+01    7.595427e+03
  4.022185e+01    7.582645e+03
  4.024473e+01    7.580438e+03
  4.026762e+01    7.581321e+03
  4.029050e+01    7.570368e+03
  4.031339e+01    7.566845e+03
  4.033627e+01    7.566980e+03
  4.035916e+01    7.559286e+03
  4.038204e+01    7.550177e+03
  4.040493e+01    7.546188e+03
  4.042782e+01    7.537200e+03
  4.045070e+01    7.532793e+03
  4.047359e+01    7.533034e+03
  4.049647e+01    7.528117e+03
  4.051936e+01    7.533154e+03
  4.054224e+01    7.533545e+03
  4.056513e+01    7.526146e+03
  4.058801e+01    7.522439e+03
  4.061090e+01    7.524580e+03
  4.063378e+01    7.525146e+03
  4.065667e+01    7.535650e+03
  4.067955e+01    7.529381e+03
  4.070244e+01    7.533547e+03
  4.072532e+01    7.539504e+03
  4.074821e+01    7.546004e+03
  4.077110e+01    7.562791e+03
  4.079398e+01    7.593707e+03
  4.081687e+01    7.613536e+03
  4.083975e+01    7.657657e+03
  4.086264e+01    7.729743e+03
  4.088552e+01    7.826152e+03
  4.090841e+01    8.011634e+03
  4.093129e+01    8.370830e+03
  4.095418e+01    9.042244e+03
  4.097706e+01    1.018659e+04
  4.099995e+01    1.181887e+04
  4.102283e+01    1.343739e+04
  4.104572e+01    1.424946e+04
  4.106861e+01    1.387535e+04
  4.109149e+01    1.258121e+04
  4.111438e+01    1.095622e+04
  4.113726e+01    9.552769e+03
  4.116015e+01    8.649400e+03
  4.118303e+01    8.147104e+03
  4.120592e+01    7.878671e+03
  4.122880e+01    7.740535e+03
  4.125169e+01    7.657134e+03
  4.127457e+01    7.592751e+03
  4.129746e+01    7.550124e+03
  4.132034e+01    7.514871e+03
  4.134323e+01    7.493181e+03
  4.136612e+01    7.481281e+03
  4.138900e+01    7.470894e+03
  4.141189e+01    7.456250e+03
  4.143477e+01    7.442640e+03
  4.145766e+01    7.435529e+03
  4.148054e+01    7.427691e+03
  4.150343e+01    7.423412e+03
  4.152631e+01    7.421980e+03
  4.154920e+01    7.419727e+03
  4.157208e+01    7.409491e+03
  4.159497e+01    7.413000e+03
  4.161785e+01    7.417005e+03
  4.164074e+01    7.412560e+03
  4.166362e+01    7.411500e+03
  4.168651e+01    7.416000e+03
  4.170940e+01    7.415558e+03
  4.173228e+01    7.404257e+03
  4.175517e+01    7.392673e+03
  4.177805e+01    7.389307e+03
  4.180094e+01    7.390308e+03
  4.182382e+01    7.393804e+03
  4.184671e+01    7.387292e+03
  4.186959e+01    7.391256e+03
  4.189248e+01    7.391762e+03
  4.191536e+01    7.389249e+03
  4.193825e+01    7.393913e+03
  4.196113e+01    7.402480e+03
  4.198402e+01    7.415023e+03
  4.200691e+01    7.441573e+03
  4.202979e+01    7.499417e+03
  4.205268e+01    7.591839e+03
  4.207556e+01    7.770448e+03
  4.209845e+01    8.054399e+03
  4.212133e+01    8.412841e+03
  4.214422e+01    8.703646e+03
  4.216710e+01    8.780775e+03
  4.218999e+01    8.620782e+03
  4.221287e+01    8.311891e+03
  4.223576e+01    7.965054e+03
  4.225864e+01    7.703051e+03
  4.228153e+01    7.544524e+03
  4.230442e+01    7.460945e+03
  4.232730e+01    7.426971e+03
  4.235019e+01    7.403223e+03
  4.237307e+01    7.382687e+03
  4.239596e+01    7.369145e+03
  4.241884e+01    7.368184e+03
  4.244173e+01    7.365713e+03
  4.246461e+01    7.357047e+03
  4.248750e+01    7.349110e+03
  4.251038e+01    7.346429e+03
  4.253327e+01    7.345584e+03
  4.255615e+01    7.340281e+03
  4.257904e+01    7.338868e+03
  4.260192e+01    7.343445e+03
  4.262481e+01    7.348841e+03
  4.264770e+01    7.344162e+03
  4.267058e+01    7.342009e+03
  4.269347e+01    7.338890e+03
  4.271635e+01    7.342303e+03
  4.273924e+01    7.344128e+03
  4.276212e+01    7.351127e+03
  4.278501e+01    7.343738e+03
  4.280789e+01    7.354716e+03
  4.283078e+01    7.360487e+03
  4.285366e+01    7.368795e+03
  4.287655e+01    7.374422e+03
  4.289943e+01    7.394496e+03
  4.292232e+01    7.413014e+03
  4.294521e+01    7.432914e+03
  4.296809e+01    7.450576e+03
  4.299098e+01    7.472033e+03
  4.301386e+01    7.495722e+03
  4.303675e+01    7.533295e+03
  4.305963e+01    7.583645e+03
  4.308252e+01    7.663441e+03
  4.310540e+01    7.815765e+03
  4.312829e+01    8.080132e+03
  4.315117e+01    8.587552e+03
  4.317406e+01    9.469938e+03
  4.319694e+01    1.079408e+04
  4.321983e+01    1.221184e+04
  4.324272e+01    1.306771e+04
  4.326560e+01    1.296406e+04
  4.328849e+01    1.204954e+04
  4.331137e+01    1.077920e+04
  4.333426e+01    9.582625e+03
  4.335714e+01    8.801446e+03
  4.338003e+01    8.397239e+03
  4.340291e+01    8.248912e+03
  4.342580e+01    8.255305e+03
  4.344868e+01    8.392011e+03
  4.347157e+01    8.738355e+03
  4.349445e+01    9.392258e+03
  4.351734e+01    1.062383e+04
  4.354022e+01    1.281226e+04
  4.356311e+01    1.678431e+04
  4.358600e+01    2.297741e+04
  4.360888e+01    2.883360e+04
  4.363177e+01    3.032048e+04
  4.365465e+01    2.772928e+04
  4.367754e+01    2.265944e+04
  4.370042e+01    1.697888e+04
  4.372331e+01    1.271992e+04
  4.374619e+01    1.034384e+04
  4.376908e+01    9.177560e+03
  4.379196e+01    8.539062e+03
  4.381485e+01    8.188917e+03
  4.383773e+01    7.968262e+03
  4.386062e+01    7.820005e+03
  4.388351e+01    7.727573e+03
  4.390639e+01    7.675972e+03
  4.392928e+01    7.640981e+03
  4.395216e+01    7.632499e+03
  4.397505e+01    7.635046e+03
  4.399793e+01    7.637940e+03
  4.402082e+01    7.669337e+03
  4.404370e+01    7.734182e+03
  4.406659e+01    7.798761e+03
  4.408947e+01    7.895140e+03
  4.411236e+01    8.066425e+03
  4.413524e+01    8.326994e+03
  4.415813e+01    8.750158e+03
  4.418102e+01    9.521917e+03
  4.420390e+01    1.094948e+04
  4.422679e+01    1.357578e+04
  4.424967e+01    1.802532e+04
  4.427256e+01    2.402248e+04
  4.429544e+01    2.934731e+04
  4.431833e+01    3.130901e+04
  4.434121e+01    2.929596e+04
  4.436410e+01    2.449375e+04
  4.438698e+01    1.879281e+04
  4.440987e+01    1.412113e+04
  4.443275e+01    1.121530e+04
  4.445564e+01    9.648940e+03
  4.447853e+01    8.816361e+03
  4.450141e+01    8.329858e+03
  4.452430e+01    8.027688e+03
  4.454718e+01    7.821870e+03
  4.457007e+01    7.682025e+03
  4.459295e+01    7.603414e+03
  4.461584e+01    7.527116e+03
  4.463872e+01    7.460396e+03
  4.466161e+01    7.410487e+03
  4.468449e+01    7.369153e+03
  4.470738e+01    7.334908e+03
  4.473026e+01    7.312932e+03
  4.475315e+01    7.299696e+03
  4.477603e+01    7.285096e+03
  4.479892e+01    7.258529e+03
  4.482181e+01    7.243134e+03
  4.484469e+01    7.225998e+03
  4.486758e+01    7.213744e+03
  4.489046e+01    7.212054e+03
  4.491335e+01    7.207355e+03
  4.493623e+01    7.213192e+03
  4.495912e+01    7.207464e+03
  4.498200e+01    7.208771e+03
  4.500489e+01    7.200287e+03
  4.502777e+01    7.207407e+03
  4.505066e+01    7.218865e+03
  4.507354e+01    7.233520e+03
  4.509643e+01    7.253484e+03
  4.511932e+01    7.275685e+03
  4.514220e+01    7.308315e+03
  4.516509e+01    7.360265e+03
  4.518797e+01    7.448708e+03
  4.521086e+01    7.580365e+03
  4.523374e+01    7.830576e+03
  4.525663e+01    8.313176e+03
  4.527951e+01    9.183613e+03
  4.530240e+01    1.056399e+04
  4.532528e+01    1.224903e+04
  4.534817e+01    1.351483e+04
  4.537105e+01    1.371587e+04
  4.539394e+01    1.287287e+04
  4.541683e+01    1.139901e+04
  4.543971e+01    9.858719e+03
  4.546260e+01    8.707712e+03
  4.548548e+01    8.028128e+03
  4.550837e+01    7.657454e+03
  4.553125e+01    7.445792e+03
  4.555414e+01    7.324118e+03
  4.557702e+01    7.239745e+03
  4.559991e+01    7.189660e+03
  4.562279e+01    7.140083e+03
  4.564568e+01    7.113640e+03
  4.566856e+01    7.091657e+03
  4.569145e+01    7.080128e+03
  4.571433e+01    7.071948e+03
  4.573722e+01    7.044942e+03
  4.576011e+01    7.025134e+03
  4.578299e+01    7.027639e+03
  4.580588e+01    7.016489e+03
  4.582876e+01    7.000080e+03
  4.585165e+01    7.009215e+03
  4.587453e+01    7.004927e+03
  4.589742e+01    6.990433e+03
  4.592030e+01    6.975921e+03
  4.594319e+01    6.983835e+03
  4.596607e+01    6.978496e+03
  4.598896e+01    6.966498e+03
  4.601184e+01    6.962008e+03
  4.603473e+01    6.951000e+03
  4.605762e+01    6.955910e+03
  4.608050e+01    6.939996e+03
  4.610339e+01    6.933249e+03
  4.612627e+01    6.953737e+03
  4.614916e+01    6.945189e+03
  4.617204e+01    6.956336e+03
  4.619493e+01    6.981232e+03
  4.621781e+01    7.006226e+03
  4.624070e+01    7.053136e+03
  4.626358e+01    7.156476e+03
  4.628647e+01    7.327804e+03
  4.630935e+01    7.629073e+03
  4.633224e+01    8.107618e+03
  4.635513e+01    8.628029e+03
  4.637801e+01    8.969529e+03
  4.640090e+01    8.989207e+03
  4.642378e+01    8.677046e+03
  4.644667e+01    8.200759e+03
  4.646955e+01    7.727617e+03
  4.649244e+01    7.412919e+03
  4.651532e+01    7.219345e+03
  4.653821e+01    7.111660e+03
  4.656109e+01    7.041503e+03
  4.658398e+01    7.003782e+03
  4.660686e+01    6.999130e+03
  4.662975e+01    6.987060e+03
  4.665263e+01    6.972219e+03
  4.667552e+01    6.964843e+03
  4.669841e+01    6.958521e+03
  4.672129e+01    6.960372e+03
  4.674418e+01    6.966360e+03
  4.676706e+01    6.955841e+03
  4.678995e+01    6.983418e+03
  4.681283e+01    6.989868e+03
  4.683572e+01    7.003107e+03
  4.685860e+01    6.996989e+03
  4.688149e+01    7.000835e+03
  4.690437e+01    7.009370e+03
  4.692726e+01    7.024486e+03
  4.695014e+01    7.029267e+03
  4.697303e+01    7.032259e+03
  4.699592e+01    7.052675e+03
  4.701880e+01    7.063204e+03
  4.704169e+01    7.100509e+03
  4.706457e+01    7.123060e+03
  4.708746e+01    7.132855e+03
  4.711034e+01    7.154592e+03
  4.713323e+01    7.185664e+03
  4.715611e+01    7.181991e+03
  4.717900e+01    7.208660e+03
  4.720188e+01    7.242685e+03
  4.722477e+01    7.288487e+03
  4.724765e+01    7.345311e+03
  4.727054e+01    7.409997e+03
  4.729343e+01    7.559449e+03
  4.731631e+01    7.768894e+03
  4.733920e+01    8.078280e+03
  4.736208e+01    8.464596e+03
  4.738497e+01    8.746312e+03
  4.740785e+01    8.793794e+03
  4.743074e+01    8.631719e+03
  4.745362e+01    8.338891e+03
  4.747651e+01    8.107529e+03
  4.749939e+01    7.967016e+03
  4.752228e+01    7.885813e+03
  4.754516e+01    7.876314e+03
  4.756805e+01    7.836329e+03
  4.759094e+01    7.925247e+03
  4.761382e+01    8.014362e+03
  4.763671e+01    8.037017e+03
  4.765959e+01    8.015601e+03
  4.768248e+01    8.036747e+03
  4.770536e+01    7.986613e+03
  4.772825e+01    7.867799e+03
  4.775113e+01    7.933391e+03
  4.777402e+01    7.769351e+03
  4.779690e+01    7.754847e+03
  4.781979e+01    7.487991e+03
  4.784267e+01    7.224133e+03
  4.786556e+01    6.228614e+03
  4.788844e+01    3.021524e+03