File: Output/ROCK_XRD/WAM39B_integrated/wam39b_rt_1_xrd_000001_integrated.dat
# == pyFAI calibration ==
# Distance Sample to Detector: 0.261615 m
# PONI: 2.023e-01, 2.348e-01 m
# Rotations: -0.026380 0.002005 0.000000 rad
#
# == Fit2d calibration ==
# Distance Sample-beamCenter: 261.707 mm
# Center: x=6119.331, y=5134.776 pix
# Tilt: 1.516 deg  TiltPlanRot: 4.347 deg
#
# Detector Rayonix SX165	 PixelSize= 3.950e-05, 3.950e-05 m
#    Detector has a mask: True
#    Detector has a dark current: False
#    detector has a flat field: False
#
# Wavelength: 1.12713e-10 m
# Mask applied: from detector
# Dark current applied: False
# Flat field applied: False
# Polarization factor: None
# Normalization factor: 1.0
# --> ROCK\\WAM39B_integrated\wam39b_rt_1_xrd_000001_integrated.dat
#       2th_deg             I
  2.502596e+01    6.123904e+03
  2.504885e+01    1.609651e+04
  2.507173e+01    2.166239e+04
  2.509462e+01    2.300563e+04
  2.511750e+01    2.517884e+04
  2.514039e+01    2.611271e+04
  2.516327e+01    2.602189e+04
  2.518616e+01    2.579996e+04
  2.520905e+01    2.565544e+04
  2.523193e+01    2.536418e+04
  2.525482e+01    2.548063e+04
  2.527770e+01    2.596194e+04
  2.530059e+01    2.586027e+04
  2.532347e+01    2.562341e+04
  2.534636e+01    2.542822e+04
  2.536924e+01    2.533271e+04
  2.539213e+01    2.533496e+04
  2.541501e+01    2.537288e+04
  2.543790e+01    2.543026e+04
  2.546078e+01    2.554515e+04
  2.548367e+01    2.556467e+04
  2.550656e+01    2.541597e+04
  2.552944e+01    2.537742e+04
  2.555233e+01    2.581821e+04
  2.557521e+01    2.613718e+04
  2.559810e+01    2.630190e+04
  2.562098e+01    2.660220e+04
  2.564387e+01    2.697353e+04
  2.566675e+01    2.735298e+04
  2.568964e+01    2.763102e+04
  2.571252e+01    2.791288e+04
  2.573541e+01    2.824470e+04
  2.575829e+01    2.844183e+04
  2.578118e+01    2.846504e+04
  2.580407e+01    2.848422e+04
  2.582695e+01    2.843510e+04
  2.584984e+01    2.825307e+04
  2.587272e+01    2.800036e+04
  2.589561e+01    2.779430e+04
  2.591849e+01    2.746985e+04
  2.594138e+01    2.719624e+04
  2.596426e+01    2.705512e+04
  2.598715e+01    2.683139e+04
  2.601003e+01    2.678142e+04
  2.603292e+01    2.670030e+04
  2.605580e+01    2.664955e+04
  2.607869e+01    2.669937e+04
  2.610157e+01    2.675775e+04
  2.612446e+01    2.684730e+04
  2.614735e+01    2.700662e+04
  2.617023e+01    2.717959e+04
  2.619312e+01    2.740196e+04
  2.621600e+01    2.771625e+04
  2.623889e+01    2.797715e+04
  2.626177e+01    2.833814e+04
  2.628466e+01    2.875893e+04
  2.630754e+01    2.927079e+04
  2.633043e+01    2.989648e+04
  2.635331e+01    3.076622e+04
  2.637620e+01    3.207117e+04
  2.639908e+01    3.389124e+04
  2.642197e+01    3.629204e+04
  2.644486e+01    3.896410e+04
  2.646774e+01    4.114668e+04
  2.649063e+01    4.167663e+04
  2.651351e+01    4.050943e+04
  2.653640e+01    3.799513e+04
  2.655928e+01    3.515929e+04
  2.658217e+01    3.279355e+04
  2.660505e+01    3.113763e+04
  2.662794e+01    3.008186e+04
  2.665082e+01    2.937581e+04
  2.667371e+01    2.893947e+04
  2.669659e+01    2.866874e+04
  2.671948e+01    2.850305e+04
  2.674237e+01    2.839614e+04
  2.676525e+01    2.830182e+04
  2.678814e+01    2.819817e+04
  2.681102e+01    2.811801e+04
  2.683391e+01    2.799496e+04
  2.685679e+01    2.788510e+04
  2.687968e+01    2.777655e+04
  2.690256e+01    2.753103e+04
  2.692545e+01    2.729064e+04
  2.694833e+01    2.700411e+04
  2.697122e+01    2.667877e+04
  2.699410e+01    2.633936e+04
  2.701699e+01    2.603619e+04
  2.703988e+01    2.564118e+04
  2.706276e+01    2.526301e+04
  2.708565e+01    2.491390e+04
  2.710853e+01    2.455286e+04
  2.713142e+01    2.421309e+04
  2.715430e+01    2.389556e+04
  2.717719e+01    2.360107e+04
  2.720007e+01    2.329355e+04
  2.722296e+01    2.301819e+04
  2.724584e+01    2.276661e+04
  2.726873e+01    2.258507e+04
  2.729161e+01    2.237568e+04
  2.731450e+01    2.219960e+04
  2.733738e+01    2.202943e+04
  2.736027e+01    2.188442e+04
  2.738316e+01    2.175120e+04
  2.740604e+01    2.161756e+04
  2.742893e+01    2.151817e+04
  2.745181e+01    2.145228e+04
  2.747470e+01    2.135959e+04
  2.749758e+01    2.128108e+04
  2.752047e+01    2.121403e+04
  2.754335e+01    2.116398e+04
  2.756624e+01    2.113784e+04
  2.758912e+01    2.108919e+04
  2.761201e+01    2.103299e+04
  2.763489e+01    2.099014e+04
  2.765778e+01    2.098690e+04
  2.768067e+01    2.098583e+04
  2.770355e+01    2.100158e+04
  2.772644e+01    2.099020e+04
  2.774932e+01    2.098949e+04
  2.777221e+01    2.102826e+04
  2.779509e+01    2.108528e+04
  2.781798e+01    2.119468e+04
  2.784086e+01    2.129963e+04
  2.786375e+01    2.144192e+04
  2.788663e+01    2.160480e+04
  2.790952e+01    2.179854e+04
  2.793240e+01    2.207285e+04
  2.795529e+01    2.240921e+04
  2.797818e+01    2.283580e+04
  2.800106e+01    2.339946e+04
  2.802395e+01    2.418713e+04
  2.804683e+01    2.526959e+04
  2.806972e+01    2.659517e+04
  2.809260e+01    2.792365e+04
  2.811549e+01    2.880656e+04
  2.813837e+01    2.886351e+04
  2.816126e+01    2.800814e+04
  2.818414e+01    2.655062e+04
  2.820703e+01    2.498361e+04
  2.822991e+01    2.364010e+04
  2.825280e+01    2.261636e+04
  2.827568e+01    2.185965e+04
  2.829857e+01    2.126498e+04
  2.832146e+01    2.077671e+04
  2.834434e+01    2.035079e+04
  2.836723e+01    1.998678e+04
  2.839011e+01    1.968188e+04
  2.841300e+01    1.940186e+04
  2.843588e+01    1.917906e+04
  2.845877e+01    1.896699e+04
  2.848165e+01    1.878038e+04
  2.850454e+01    1.863925e+04
  2.852742e+01    1.851282e+04
  2.855031e+01    1.839264e+04
  2.857319e+01    1.824565e+04
  2.859608e+01    1.812156e+04
  2.861897e+01    1.801638e+04
  2.864185e+01    1.790374e+04
  2.866474e+01    1.780497e+04
  2.868762e+01    1.767464e+04
  2.871051e+01    1.757835e+04
  2.873339e+01    1.750220e+04
  2.875628e+01    1.741569e+04
  2.877916e+01    1.733153e+04
  2.880205e+01    1.724298e+04
  2.882493e+01    1.718329e+04
  2.884782e+01    1.711942e+04
  2.887070e+01    1.704472e+04
  2.889359e+01    1.696618e+04
  2.891648e+01    1.689562e+04
  2.893936e+01    1.682418e+04
  2.896225e+01    1.673636e+04
  2.898513e+01    1.665988e+04
  2.900802e+01    1.660199e+04
  2.903090e+01    1.653211e+04
  2.905379e+01    1.645389e+04
  2.907667e+01    1.640211e+04
  2.909956e+01    1.634634e+04
  2.912244e+01    1.627975e+04
  2.914533e+01    1.621986e+04
  2.916821e+01    1.618119e+04
  2.919110e+01    1.613816e+04
  2.921398e+01    1.608431e+04
  2.923687e+01    1.603589e+04
  2.925976e+01    1.597530e+04
  2.928264e+01    1.592510e+04
  2.930553e+01    1.589145e+04
  2.932841e+01    1.584882e+04
  2.935130e+01    1.579260e+04
  2.937418e+01    1.574212e+04
  2.939707e+01    1.572629e+04
  2.941995e+01    1.567644e+04
  2.944284e+01    1.563489e+04
  2.946572e+01    1.563849e+04
  2.948861e+01    1.562484e+04
  2.951149e+01    1.563927e+04
  2.953438e+01    1.571121e+04
  2.955727e+01    1.581523e+04
  2.958015e+01    1.600173e+04
  2.960304e+01    1.633012e+04
  2.962592e+01    1.678089e+04
  2.964881e+01    1.726824e+04
  2.967169e+01    1.761396e+04
  2.969458e+01    1.765951e+04
  2.971746e+01    1.735702e+04
  2.974035e+01    1.683714e+04
  2.976323e+01    1.627620e+04
  2.978612e+01    1.582850e+04
  2.980900e+01    1.551650e+04
  2.983189e+01    1.530473e+04
  2.985478e+01    1.515427e+04
  2.987766e+01    1.503785e+04
  2.990055e+01    1.497082e+04
  2.992343e+01    1.493407e+04
  2.994632e+01    1.489256e+04
  2.996920e+01    1.485901e+04
  2.999209e+01    1.482966e+04
  3.001497e+01    1.481698e+04
  3.003786e+01    1.480885e+04
  3.006074e+01    1.479471e+04
  3.008363e+01    1.478504e+04
  3.010651e+01    1.478423e+04
  3.012940e+01    1.478829e+04
  3.015228e+01    1.476313e+04
  3.017517e+01    1.475623e+04
  3.019806e+01    1.478466e+04
  3.022094e+01    1.478196e+04
  3.024383e+01    1.477733e+04
  3.026671e+01    1.478939e+04
  3.028960e+01    1.479992e+04
  3.031248e+01    1.482179e+04
  3.033537e+01    1.486198e+04
  3.035825e+01    1.489252e+04
  3.038114e+01    1.491769e+04
  3.040402e+01    1.496024e+04
  3.042691e+01    1.501324e+04
  3.044979e+01    1.507332e+04
  3.047268e+01    1.513476e+04
  3.049557e+01    1.519738e+04
  3.051845e+01    1.525589e+04
  3.054134e+01    1.532068e+04
  3.056422e+01    1.541382e+04
  3.058711e+01    1.551794e+04
  3.060999e+01    1.563748e+04
  3.063288e+01    1.576670e+04
  3.065576e+01    1.590547e+04
  3.067865e+01    1.606385e+04
  3.070153e+01    1.624485e+04
  3.072442e+01    1.644046e+04
  3.074730e+01    1.666497e+04
  3.077019e+01    1.690343e+04
  3.079308e+01    1.718218e+04
  3.081596e+01    1.747480e+04
  3.083885e+01    1.780331e+04
  3.086173e+01    1.817677e+04
  3.088462e+01    1.859318e+04
  3.090750e+01    1.904252e+04
  3.093039e+01    1.955248e+04
  3.095327e+01    2.012654e+04
  3.097616e+01    2.082090e+04
  3.099904e+01    2.169678e+04
  3.102193e+01    2.285588e+04
  3.104481e+01    2.448345e+04
  3.106770e+01    2.688854e+04
  3.109059e+01    3.038924e+04
  3.111347e+01    3.503184e+04
  3.113636e+01    3.991847e+04
  3.115924e+01    4.334508e+04
  3.118213e+01    4.383448e+04
  3.120501e+01    4.109641e+04
  3.122790e+01    3.622774e+04
  3.125078e+01    3.109185e+04
  3.127367e+01    2.692012e+04
  3.129655e+01    2.395669e+04
  3.131944e+01    2.194084e+04
  3.134232e+01    2.052969e+04
  3.136521e+01    1.950902e+04
  3.138809e+01    1.871410e+04
  3.141098e+01    1.807431e+04
  3.143387e+01    1.753924e+04
  3.145675e+01    1.708044e+04
  3.147964e+01    1.667073e+04
  3.150252e+01    1.630884e+04
  3.152541e+01    1.600989e+04
  3.154829e+01    1.573391e+04
  3.157118e+01    1.549721e+04
  3.159406e+01    1.528851e+04
  3.161695e+01    1.509927e+04
  3.163983e+01    1.493093e+04
  3.166272e+01    1.478246e+04
  3.168560e+01    1.464425e+04
  3.170849e+01    1.452916e+04
  3.173138e+01    1.441925e+04
  3.175426e+01    1.430648e+04
  3.177715e+01    1.421103e+04
  3.180003e+01    1.413446e+04
  3.182292e+01    1.405544e+04
  3.184580e+01    1.398124e+04
  3.186869e+01    1.391106e+04
  3.189157e+01    1.383344e+04
  3.191446e+01    1.376859e+04
  3.193734e+01    1.371721e+04
  3.196023e+01    1.366253e+04
  3.198311e+01    1.360506e+04
  3.200600e+01    1.355369e+04
  3.202889e+01    1.351046e+04
  3.205177e+01    1.346227e+04
  3.207466e+01    1.341201e+04
  3.209754e+01    1.335627e+04
  3.212043e+01    1.331475e+04
  3.214331e+01    1.327493e+04
  3.216620e+01    1.324812e+04
  3.218908e+01    1.320536e+04
  3.221197e+01    1.315396e+04
  3.223485e+01    1.311184e+04
  3.225774e+01    1.308507e+04
  3.228062e+01    1.306046e+04
  3.230351e+01    1.302488e+04
  3.232639e+01    1.299598e+04
  3.234928e+01    1.297501e+04
  3.237217e+01    1.296586e+04
  3.239505e+01    1.295781e+04
  3.241794e+01    1.296045e+04
  3.244082e+01    1.299619e+04
  3.246371e+01    1.307640e+04
  3.248659e+01    1.323516e+04
  3.250948e+01    1.349649e+04
  3.253236e+01    1.389253e+04
  3.255525e+01    1.434607e+04
  3.257813e+01    1.470134e+04
  3.260102e+01    1.480043e+04
  3.262390e+01    1.459358e+04
  3.264679e+01    1.413600e+04
  3.266968e+01    1.361724e+04
  3.269256e+01    1.316679e+04
  3.271545e+01    1.284109e+04
  3.273833e+01    1.263539e+04
  3.276122e+01    1.249235e+04
  3.278410e+01    1.239689e+04
  3.280699e+01    1.232946e+04
  3.282987e+01    1.227396e+04
  3.285276e+01    1.223329e+04
  3.287564e+01    1.218701e+04
  3.289853e+01    1.215772e+04
  3.292141e+01    1.212483e+04
  3.294430e+01    1.209791e+04
  3.296719e+01    1.207119e+04
  3.299007e+01    1.203721e+04
  3.301296e+01    1.201074e+04
  3.303584e+01    1.199782e+04
  3.305873e+01    1.198110e+04
  3.308161e+01    1.195957e+04
  3.310450e+01    1.194338e+04
  3.312738e+01    1.192456e+04
  3.315027e+01    1.191197e+04
  3.317315e+01    1.189826e+04
  3.319604e+01    1.188392e+04
  3.321892e+01    1.186906e+04
  3.324181e+01    1.186010e+04
  3.326469e+01    1.185011e+04
  3.328758e+01    1.185390e+04
  3.331047e+01    1.185103e+04
  3.333335e+01    1.183753e+04
  3.335624e+01    1.182248e+04
  3.337912e+01    1.181183e+04
  3.340201e+01    1.180587e+04
  3.342489e+01    1.180740e+04
  3.344778e+01    1.180902e+04
  3.347066e+01    1.180499e+04
  3.349355e+01    1.180604e+04
  3.351643e+01    1.179762e+04
  3.353932e+01    1.180033e+04
  3.356220e+01    1.181190e+04
  3.358509e+01    1.183316e+04
  3.360798e+01    1.185915e+04
  3.363086e+01    1.188503e+04
  3.365375e+01    1.193291e+04
  3.367663e+01    1.198932e+04
  3.369952e+01    1.207058e+04
  3.372240e+01    1.218988e+04
  3.374529e+01    1.234712e+04
  3.376817e+01    1.258714e+04
  3.379106e+01    1.297066e+04
  3.381394e+01    1.356569e+04
  3.383683e+01    1.451459e+04
  3.385971e+01    1.607657e+04
  3.388260e+01    1.852548e+04
  3.390549e+01    2.192412e+04
  3.392837e+01    2.568134e+04
  3.395126e+01    2.850598e+04
  3.397414e+01    2.924159e+04
  3.399703e+01    2.752130e+04
  3.401991e+01    2.414400e+04
  3.404280e+01    2.041729e+04
  3.406568e+01    1.737035e+04
  3.408857e+01    1.530122e+04
  3.411145e+01    1.400413e+04
  3.413434e+01    1.320836e+04
  3.415722e+01    1.273248e+04
  3.418011e+01    1.241917e+04
  3.420300e+01    1.219247e+04
  3.422588e+01    1.203384e+04
  3.424877e+01    1.193408e+04
  3.427165e+01    1.185683e+04
  3.429454e+01    1.178527e+04
  3.431742e+01    1.172258e+04
  3.434031e+01    1.168059e+04
  3.436319e+01    1.163468e+04
  3.438608e+01    1.157907e+04
  3.440896e+01    1.154290e+04
  3.443185e+01    1.150049e+04
  3.445473e+01    1.145756e+04
  3.447762e+01    1.141015e+04
  3.450050e+01    1.137192e+04
  3.452339e+01    1.132588e+04
  3.454628e+01    1.129055e+04
  3.456916e+01    1.125756e+04
  3.459205e+01    1.123171e+04
  3.461493e+01    1.120504e+04
  3.463782e+01    1.117593e+04
  3.466070e+01    1.114902e+04
  3.468359e+01    1.112781e+04
  3.470647e+01    1.111114e+04
  3.472936e+01    1.108897e+04
  3.475224e+01    1.106750e+04
  3.477513e+01    1.105808e+04
  3.479801e+01    1.104645e+04
  3.482090e+01    1.104782e+04
  3.484379e+01    1.104517e+04
  3.486667e+01    1.105031e+04
  3.488956e+01    1.106853e+04
  3.491244e+01    1.109018e+04
  3.493533e+01    1.111333e+04
  3.495821e+01    1.113518e+04
  3.498110e+01    1.117254e+04
  3.500398e+01    1.121330e+04
  3.502687e+01    1.124799e+04
  3.504975e+01    1.128459e+04
  3.507264e+01    1.132013e+04
  3.509552e+01    1.134107e+04
  3.511841e+01    1.136002e+04
  3.514130e+01    1.135679e+04
  3.516418e+01    1.135446e+04
  3.518707e+01    1.132455e+04
  3.520995e+01    1.127102e+04
  3.523284e+01    1.120915e+04
  3.525572e+01    1.115058e+04
  3.527861e+01    1.108582e+04
  3.530149e+01    1.103131e+04
  3.532438e+01    1.096729e+04
  3.534726e+01    1.091106e+04
  3.537015e+01    1.085603e+04
  3.539303e+01    1.079941e+04
  3.541592e+01    1.075300e+04
  3.543880e+01    1.070320e+04
  3.546169e+01    1.066488e+04
  3.548458e+01    1.063065e+04
  3.550746e+01    1.059830e+04
  3.553035e+01    1.056593e+04
  3.555323e+01    1.052924e+04
  3.557612e+01    1.048981e+04
  3.559900e+01    1.046559e+04
  3.562189e+01    1.044355e+04
  3.564477e+01    1.042223e+04
  3.566766e+01    1.040829e+04
  3.569054e+01    1.039476e+04
  3.571343e+01    1.038108e+04
  3.573631e+01    1.036758e+04
  3.575920e+01    1.034873e+04
  3.578209e+01    1.033756e+04
  3.580497e+01    1.032970e+04
  3.582786e+01    1.031353e+04
  3.585074e+01    1.030300e+04
  3.587363e+01    1.030346e+04
  3.589651e+01    1.029444e+04
  3.591940e+01    1.028621e+04
  3.594228e+01    1.027989e+04
  3.596517e+01    1.028465e+04
  3.598805e+01    1.029087e+04
  3.601094e+01    1.028973e+04
  3.603382e+01    1.028441e+04
  3.605671e+01    1.028066e+04
  3.607960e+01    1.029355e+04
  3.610248e+01    1.030087e+04
  3.612537e+01    1.029887e+04
  3.614825e+01    1.031275e+04
  3.617114e+01    1.031986e+04
  3.619402e+01    1.033357e+04
  3.621691e+01    1.035911e+04
  3.623979e+01    1.037688e+04
  3.626268e+01    1.040341e+04
  3.628556e+01    1.043155e+04
  3.630845e+01    1.046855e+04
  3.633133e+01    1.052306e+04
  3.635422e+01    1.060467e+04
  3.637710e+01    1.072093e+04
  3.639999e+01    1.089334e+04
  3.642288e+01    1.117530e+04
  3.644576e+01    1.161296e+04
  3.646865e+01    1.234039e+04
  3.649153e+01    1.344554e+04
  3.651442e+01    1.488201e+04
  3.653730e+01    1.635197e+04
  3.656019e+01    1.727004e+04
  3.658307e+01    1.724320e+04
  3.660596e+01    1.634622e+04
  3.662884e+01    1.491807e+04
  3.665173e+01    1.348007e+04
  3.667461e+01    1.238778e+04
  3.669750e+01    1.167389e+04
  3.672039e+01    1.123405e+04
  3.674327e+01    1.097157e+04
  3.676616e+01    1.079985e+04
  3.678904e+01    1.069707e+04
  3.681193e+01    1.063104e+04
  3.683481e+01    1.058906e+04
  3.685770e+01    1.054762e+04
  3.688058e+01    1.053294e+04
  3.690347e+01    1.052725e+04
  3.692635e+01    1.052066e+04
  3.694924e+01    1.051521e+04
  3.697212e+01    1.051972e+04
  3.699501e+01    1.053288e+04
  3.701790e+01    1.053527e+04
  3.704078e+01    1.053749e+04
  3.706367e+01    1.055465e+04
  3.708655e+01    1.056725e+04
  3.710944e+01    1.059461e+04
  3.713232e+01    1.061384e+04
  3.715521e+01    1.065377e+04
  3.717809e+01    1.069419e+04
  3.720098e+01    1.073712e+04
  3.722386e+01    1.078940e+04
  3.724675e+01    1.083464e+04
  3.726963e+01    1.088545e+04
  3.729252e+01    1.094464e+04
  3.731541e+01    1.099761e+04
  3.733829e+01    1.106050e+04
  3.736118e+01    1.114927e+04
  3.738406e+01    1.125007e+04
  3.740695e+01    1.136638e+04
  3.742983e+01    1.150685e+04
  3.745272e+01    1.168319e+04
  3.747560e+01    1.189428e+04
  3.749849e+01    1.216728e+04
  3.752137e+01    1.252945e+04
  3.754426e+01    1.297947e+04
  3.756714e+01    1.356102e+04
  3.759003e+01    1.436714e+04
  3.761291e+01    1.553376e+04
  3.763580e+01    1.730758e+04
  3.765869e+01    2.008477e+04
  3.768157e+01    2.460792e+04
  3.770446e+01    3.202435e+04
  3.772734e+01    4.371303e+04
  3.775023e+01    5.997956e+04
  3.777311e+01    7.772540e+04
  3.779600e+01    9.072400e+04
  3.781888e+01    9.344818e+04
  3.784177e+01    8.539475e+04
  3.786465e+01    6.969432e+04
  3.788754e+01    5.224766e+04
  3.791042e+01    3.804372e+04
  3.793331e+01    2.840296e+04
  3.795620e+01    2.240123e+04
  3.797908e+01    1.872619e+04
  3.800197e+01    1.646283e+04
  3.802485e+01    1.499328e+04
  3.804774e+01    1.398562e+04
  3.807062e+01    1.329408e+04
  3.809351e+01    1.278866e+04
  3.811639e+01    1.240187e+04
  3.813928e+01    1.209371e+04
  3.816216e+01    1.184147e+04
  3.818505e+01    1.164140e+04
  3.820793e+01    1.147057e+04
  3.823082e+01    1.132601e+04
  3.825371e+01    1.121690e+04
  3.827659e+01    1.114427e+04
  3.829948e+01    1.108161e+04
  3.832236e+01    1.101765e+04
  3.834525e+01    1.095210e+04
  3.836813e+01    1.090852e+04
  3.839102e+01    1.087089e+04
  3.841390e+01    1.083706e+04
  3.843679e+01    1.080763e+04
  3.845967e+01    1.079516e+04
  3.848256e+01    1.077634e+04
  3.850544e+01    1.076870e+04
  3.852833e+01    1.074865e+04
  3.855121e+01    1.072678e+04
  3.857410e+01    1.070320e+04
  3.859699e+01    1.068050e+04
  3.861987e+01    1.067234e+04
  3.864276e+01    1.065663e+04
  3.866564e+01    1.063267e+04
  3.868853e+01    1.061871e+04
  3.871141e+01    1.060069e+04
  3.873430e+01    1.060612e+04
  3.875718e+01    1.061158e+04
  3.878007e+01    1.062917e+04
  3.880295e+01    1.062958e+04
  3.882584e+01    1.066573e+04
  3.884872e+01    1.073310e+04
  3.887161e+01    1.084349e+04
  3.889450e+01    1.103220e+04
  3.891738e+01    1.135941e+04
  3.894027e+01    1.186998e+04
  3.896315e+01    1.254605e+04
  3.898604e+01    1.322931e+04
  3.900892e+01    1.364975e+04
  3.903181e+01    1.364248e+04
  3.905469e+01    1.322209e+04
  3.907758e+01    1.254331e+04
  3.910046e+01    1.185415e+04
  3.912335e+01    1.132179e+04
  3.914623e+01    1.096788e+04
  3.916912e+01    1.074818e+04
  3.919201e+01    1.062730e+04
  3.921489e+01    1.052577e+04
  3.923778e+01    1.046114e+04
  3.926066e+01    1.042305e+04
  3.928355e+01    1.038382e+04
  3.930643e+01    1.035594e+04
  3.932932e+01    1.033221e+04
  3.935220e+01    1.032183e+04
  3.937509e+01    1.031503e+04
  3.939797e+01    1.030286e+04
  3.942086e+01    1.029841e+04
  3.944374e+01    1.027962e+04
  3.946663e+01    1.027615e+04
  3.948951e+01    1.026250e+04
  3.951240e+01    1.025024e+04
  3.953529e+01    1.023885e+04
  3.955817e+01    1.022929e+04
  3.958106e+01    1.021674e+04
  3.960394e+01    1.021380e+04
  3.962683e+01    1.020786e+04
  3.964971e+01    1.019746e+04
  3.967260e+01    1.019721e+04
  3.969548e+01    1.019799e+04
  3.971837e+01    1.019053e+04
  3.974125e+01    1.017475e+04
  3.976414e+01    1.016323e+04
  3.978702e+01    1.016308e+04
  3.980991e+01    1.016104e+04
  3.983280e+01    1.016186e+04
  3.985568e+01    1.017381e+04
  3.987857e+01    1.018709e+04
  3.990145e+01    1.021276e+04
  3.992434e+01    1.019918e+04
  3.994722e+01    1.019480e+04
  3.997011e+01    1.018841e+04
  3.999299e+01    1.019466e+04
  4.001588e+01    1.020573e+04
  4.003876e+01    1.023223e+04
  4.006165e+01    1.029311e+04
  4.008453e+01    1.037403e+04
  4.010742e+01    1.049629e+04
  4.013031e+01    1.066259e+04
  4.015319e+01    1.085457e+04
  4.017608e+01    1.100870e+04
  4.019896e+01    1.107196e+04
  4.022185e+01    1.101581e+04
  4.024473e+01    1.087667e+04
  4.026762e+01    1.071700e+04
  4.029050e+01    1.057878e+04
  4.031339e+01    1.049959e+04
  4.033627e+01    1.046251e+04
  4.035916e+01    1.045949e+04
  4.038204e+01    1.046238e+04
  4.040493e+01    1.047961e+04
  4.042782e+01    1.050442e+04
  4.045070e+01    1.053674e+04
  4.047359e+01    1.056851e+04
  4.049647e+01    1.057713e+04
  4.051936e+01    1.058560e+04
  4.054224e+01    1.059976e+04
  4.056513e+01    1.059700e+04
  4.058801e+01    1.058643e+04
  4.061090e+01    1.055521e+04
  4.063378e+01    1.053282e+04
  4.065667e+01    1.050780e+04
  4.067955e+01    1.046314e+04
  4.070244e+01    1.042047e+04
  4.072532e+01    1.038492e+04
  4.074821e+01    1.033919e+04
  4.077110e+01    1.029613e+04
  4.079398e+01    1.025825e+04
  4.081687e+01    1.022414e+04
  4.083975e+01    1.020328e+04
  4.086264e+01    1.017227e+04
  4.088552e+01    1.014850e+04
  4.090841e+01    1.012561e+04
  4.093129e+01    1.011380e+04
  4.095418e+01    1.011683e+04
  4.097706e+01    1.011607e+04
  4.099995e+01    1.011857e+04
  4.102283e+01    1.013766e+04
  4.104572e+01    1.016400e+04
  4.106861e+01    1.019029e+04
  4.109149e+01    1.023412e+04
  4.111438e+01    1.032329e+04
  4.113726e+01    1.044021e+04
  4.116015e+01    1.060421e+04
  4.118303e+01    1.086841e+04
  4.120592e+01    1.130246e+04
  4.122880e+01    1.202385e+04
  4.125169e+01    1.316538e+04
  4.127457e+01    1.482612e+04
  4.129746e+01    1.678963e+04
  4.132034e+01    1.841489e+04
  4.134323e+01    1.907165e+04
  4.136612e+01    1.853169e+04
  4.138900e+01    1.699969e+04
  4.141189e+01    1.510432e+04
  4.143477e+01    1.342675e+04
  4.145766e+01    1.223620e+04
  4.148054e+01    1.148805e+04
  4.150343e+01    1.103535e+04
  4.152631e+01    1.075984e+04
  4.154920e+01    1.059878e+04
  4.157208e+01    1.049351e+04
  4.159497e+01    1.043990e+04
  4.161785e+01    1.041296e+04
  4.164074e+01    1.039489e+04
  4.166362e+01    1.038076e+04
  4.168651e+01    1.037985e+04
  4.170940e+01    1.037655e+04
  4.173228e+01    1.036439e+04
  4.175517e+01    1.034461e+04
  4.177805e+01    1.032375e+04
  4.180094e+01    1.031027e+04
  4.182382e+01    1.029588e+04
  4.184671e+01    1.026071e+04
  4.186959e+01    1.024223e+04
  4.189248e+01    1.022918e+04
  4.191536e+01    1.021054e+04
  4.193825e+01    1.018542e+04
  4.196113e+01    1.017216e+04
  4.198402e+01    1.016406e+04
  4.200691e+01    1.015279e+04
  4.202979e+01    1.015325e+04
  4.205268e+01    1.015051e+04
  4.207556e+01    1.013553e+04
  4.209845e+01    1.012914e+04
  4.212133e+01    1.013129e+04
  4.214422e+01    1.013384e+04
  4.216710e+01    1.014540e+04
  4.218999e+01    1.015263e+04
  4.221287e+01    1.015981e+04
  4.223576e+01    1.016663e+04
  4.225864e+01    1.018880e+04
  4.228153e+01    1.021562e+04
  4.230442e+01    1.027436e+04
  4.232730e+01    1.037158e+04
  4.235019e+01    1.052660e+04
  4.237307e+01    1.077886e+04
  4.239596e+01    1.113718e+04
  4.241884e+01    1.156903e+04
  4.244173e+01    1.190854e+04
  4.246461e+01    1.202246e+04
  4.248750e+01    1.187082e+04
  4.251038e+01    1.151553e+04
  4.253327e+01    1.106817e+04
  4.255615e+01    1.065789e+04
  4.257904e+01    1.036176e+04
  4.260192e+01    1.017875e+04
  4.262481e+01    1.005020e+04
  4.264770e+01    9.959841e+03
  4.267058e+01    9.914353e+03
  4.269347e+01    9.878992e+03
  4.271635e+01    9.837893e+03
  4.273924e+01    9.797986e+03
  4.276212e+01    9.774315e+03
  4.278501e+01    9.753594e+03
  4.280789e+01    9.736564e+03
  4.283078e+01    9.707850e+03
  4.285366e+01    9.699393e+03
  4.287655e+01    9.683703e+03
  4.289943e+01    9.673769e+03
  4.292232e+01    9.665672e+03
  4.294521e+01    9.667191e+03
  4.296809e+01    9.660281e+03
  4.299098e+01    9.654534e+03
  4.301386e+01    9.650647e+03
  4.303675e+01    9.645485e+03
  4.305963e+01    9.636483e+03
  4.308252e+01    9.636610e+03
  4.310540e+01    9.648982e+03
  4.312829e+01    9.651625e+03
  4.315117e+01    9.672632e+03
  4.317406e+01    9.688464e+03
  4.319694e+01    9.713143e+03
  4.321983e+01    9.726097e+03
  4.324272e+01    9.757620e+03
  4.326560e+01    9.798203e+03
  4.328849e+01    9.828712e+03
  4.331137e+01    9.899153e+03
  4.333426e+01    9.982562e+03
  4.335714e+01    1.009665e+04
  4.338003e+01    1.025242e+04
  4.340291e+01    1.050392e+04
  4.342580e+01    1.089633e+04
  4.344868e+01    1.152178e+04
  4.347157e+01    1.252930e+04
  4.349445e+01    1.397275e+04
  4.351734e+01    1.565561e+04
  4.354022e+01    1.699763e+04
  4.356311e+01    1.751409e+04
  4.358600e+01    1.698477e+04
  4.360888e+01    1.567888e+04
  4.363177e+01    1.409289e+04
  4.365465e+01    1.270568e+04
  4.367754e+01    1.174428e+04
  4.370042e+01    1.115755e+04
  4.372331e+01    1.081113e+04
  4.374619e+01    1.062485e+04
  4.376908e+01    1.054120e+04
  4.379196e+01    1.047929e+04
  4.381485e+01    1.047120e+04
  4.383773e+01    1.048539e+04
  4.386062e+01    1.052382e+04
  4.388351e+01    1.059018e+04
  4.390639e+01    1.064705e+04
  4.392928e+01    1.070155e+04
  4.395216e+01    1.076730e+04
  4.397505e+01    1.082531e+04
  4.399793e+01    1.086711e+04
  4.402082e+01    1.091976e+04
  4.404370e+01    1.097565e+04
  4.406659e+01    1.100721e+04
  4.408947e+01    1.103018e+04
  4.411236e+01    1.110888e+04
  4.413524e+01    1.117622e+04
  4.415813e+01    1.123605e+04
  4.418102e+01    1.133820e+04
  4.420390e+01    1.146911e+04
  4.422679e+01    1.159451e+04
  4.424967e+01    1.174812e+04
  4.427256e+01    1.192789e+04
  4.429544e+01    1.210938e+04
  4.431833e+01    1.231615e+04
  4.434121e+01    1.255690e+04
  4.436410e+01    1.284334e+04
  4.438698e+01    1.318799e+04
  4.440987e+01    1.359599e+04
  4.443275e+01    1.414835e+04
  4.445564e+01    1.490222e+04
  4.447853e+01    1.600172e+04
  4.450141e+01    1.767942e+04
  4.452430e+01    2.033235e+04
  4.454718e+01    2.446829e+04
  4.457007e+01    3.036358e+04
  4.459295e+01    3.722634e+04
  4.461584e+01    4.257571e+04
  4.463872e+01    4.424991e+04
  4.466161e+01    4.188143e+04
  4.468449e+01    3.637038e+04
  4.470738e+01    2.969342e+04
  4.473026e+01    2.389891e+04
  4.475315e+01    1.979963e+04
  4.477603e+01    1.712435e+04
  4.479892e+01    1.541634e+04
  4.482181e+01    1.430303e+04
  4.484469e+01    1.353431e+04
  4.486758e+01    1.297357e+04
  4.489046e+01    1.252969e+04
  4.491335e+01    1.218084e+04
  4.493623e+01    1.191438e+04
  4.495912e+01    1.166543e+04
  4.498200e+01    1.147038e+04
  4.500489e+01    1.127835e+04
  4.502777e+01    1.111270e+04
  4.505066e+01    1.097245e+04
  4.507354e+01    1.084426e+04
  4.509643e+01    1.073950e+04
  4.511932e+01    1.064278e+04
  4.514220e+01    1.054719e+04
  4.516509e+01    1.046307e+04
  4.518797e+01    1.039346e+04
  4.521086e+01    1.032330e+04
  4.523374e+01    1.026517e+04
  4.525663e+01    1.021868e+04
  4.527951e+01    1.018488e+04
  4.530240e+01    1.015240e+04
  4.532528e+01    1.012602e+04
  4.534817e+01    1.011538e+04
  4.537105e+01    1.012233e+04
  4.539394e+01    1.012690e+04
  4.541683e+01    1.014680e+04
  4.543971e+01    1.020487e+04
  4.546260e+01    1.027558e+04
  4.548548e+01    1.039589e+04
  4.550837e+01    1.058474e+04
  4.553125e+01    1.086001e+04
  4.555414e+01    1.131485e+04
  4.557702e+01    1.205432e+04
  4.559991e+01    1.322074e+04
  4.562279e+01    1.488438e+04
  4.564568e+01    1.687886e+04
  4.566856e+01    1.847178e+04
  4.569145e+01    1.904555e+04
  4.571433e+01    1.842597e+04
  4.573722e+01    1.686085e+04
  4.576011e+01    1.494259e+04
  4.578299e+01    1.326272e+04
  4.580588e+01    1.205294e+04
  4.582876e+01    1.126507e+04
  4.585165e+01    1.078350e+04
  4.587453e+01    1.048832e+04
  4.589742e+01    1.029519e+04
  4.592030e+01    1.014299e+04
  4.594319e+01    1.006454e+04
  4.596607e+01    9.991935e+03
  4.598896e+01    9.931217e+03
  4.601184e+01    9.886813e+03
  4.603473e+01    9.851017e+03
  4.605762e+01    9.840226e+03
  4.608050e+01    9.800192e+03
  4.610339e+01    9.770249e+03
  4.612627e+01    9.778839e+03
  4.614916e+01    9.745554e+03
  4.617204e+01    9.737141e+03
  4.619493e+01    9.731274e+03
  4.621781e+01    9.719419e+03
  4.624070e+01    9.711962e+03
  4.626358e+01    9.707342e+03
  4.628647e+01    9.680995e+03
  4.630935e+01    9.676271e+03
  4.633224e+01    9.695544e+03
  4.635513e+01    9.683671e+03
  4.637801e+01    9.675018e+03
  4.640090e+01    9.677760e+03
  4.642378e+01    9.668087e+03
  4.644667e+01    9.673529e+03
  4.646955e+01    9.678243e+03
  4.649244e+01    9.715979e+03
  4.651532e+01    9.729753e+03
  4.653821e+01    9.777973e+03
  4.656109e+01    9.857021e+03
  4.658398e+01    9.978500e+03
  4.660686e+01    1.018371e+04
  4.662975e+01    1.049996e+04
  4.665263e+01    1.097430e+04
  4.667552e+01    1.156593e+04
  4.669841e+01    1.208009e+04
  4.672129e+01    1.230868e+04
  4.674418e+01    1.217856e+04
  4.676706e+01    1.176650e+04
  4.678995e+01    1.125479e+04
  4.681283e+01    1.075925e+04
  4.683572e+01    1.040865e+04
  4.685860e+01    1.017553e+04
  4.688149e+01    1.004702e+04
  4.690437e+01    9.976415e+03
  4.692726e+01    9.937400e+03
  4.695014e+01    9.919658e+03
  4.697303e+01    9.905058e+03
  4.699592e+01    9.923776e+03
  4.701880e+01    9.923881e+03
  4.704169e+01    9.954861e+03
  4.706457e+01    9.978971e+03
  4.708746e+01    9.983749e+03
  4.711034e+01    9.984723e+03
  4.713323e+01    9.990940e+03
  4.715611e+01    9.944896e+03
  4.717900e+01    9.920596e+03
  4.720188e+01    9.903326e+03
  4.722477e+01    9.897298e+03
  4.724765e+01    9.885242e+03
  4.727054e+01    9.860774e+03
  4.729343e+01    9.850610e+03
  4.731631e+01    9.833121e+03
  4.733920e+01    9.814756e+03
  4.736208e+01    9.824259e+03
  4.738497e+01    9.866812e+03
  4.740785e+01    9.912508e+03
  4.743074e+01    9.947231e+03
  4.745362e+01    9.956715e+03
  4.747651e+01    1.004224e+04
  4.749939e+01    1.013839e+04
  4.752228e+01    1.023317e+04
  4.754516e+01    1.032017e+04
  4.756805e+01    1.034939e+04
  4.759094e+01    1.059513e+04
  4.761382e+01    1.086663e+04
  4.763671e+01    1.110972e+04
  4.765959e+01    1.140271e+04
  4.768248e+01    1.182817e+04
  4.770536e+01    1.216875e+04
  4.772825e+01    1.215844e+04
  4.775113e+01    1.218703e+04
  4.777402e+01    1.170569e+04
  4.779690e+01    1.131904e+04
  4.781979e+01    1.058129e+04
  4.784267e+01    9.961387e+03
  4.786556e+01    8.418646e+03
  4.788844e+01    4.056505e+03