File: Output/ROCK_XRD/WAM39B_integrated/rampe3/wam39b_rampe_3_xrd_000015_integrated.dat
# == pyFAI calibration ==
# Distance Sample to Detector: 0.261615 m
# PONI: 2.023e-01, 2.348e-01 m
# Rotations: -0.026380 0.002005 0.000000 rad
#
# == Fit2d calibration ==
# Distance Sample-beamCenter: 261.707 mm
# Center: x=6119.331, y=5134.776 pix
# Tilt: 1.516 deg  TiltPlanRot: 4.347 deg
#
# Detector Rayonix SX165	 PixelSize= 3.950e-05, 3.950e-05 m
#    Detector has a mask: True
#    Detector has a dark current: False
#    detector has a flat field: False
#
# Wavelength: 1.12713e-10 m
# Mask applied: from detector
# Dark current applied: False
# Flat field applied: False
# Polarization factor: None
# Normalization factor: 1.0
# --> ROCK\\WAM39B_integrated\wam39b_rampe_3_xrd_000015_integrated.dat
#       2th_deg             I
  2.502596e+01    4.776184e+03
  2.504885e+01    1.252908e+04
  2.507173e+01    1.686474e+04
  2.509462e+01    1.791164e+04
  2.511750e+01    1.957281e+04
  2.514039e+01    2.026563e+04
  2.516327e+01    2.017254e+04
  2.518616e+01    1.999512e+04
  2.520905e+01    1.987516e+04
  2.523193e+01    1.964605e+04
  2.525482e+01    1.971964e+04
  2.527770e+01    2.007423e+04
  2.530059e+01    1.997879e+04
  2.532347e+01    1.976681e+04
  2.534636e+01    1.958113e+04
  2.536924e+01    1.946217e+04
  2.539213e+01    1.941289e+04
  2.541501e+01    1.939418e+04
  2.543790e+01    1.936825e+04
  2.546078e+01    1.936686e+04
  2.548367e+01    1.930191e+04
  2.550656e+01    1.911329e+04
  2.552944e+01    1.897509e+04
  2.555233e+01    1.918002e+04
  2.557521e+01    1.929420e+04
  2.559810e+01    1.925433e+04
  2.562098e+01    1.930659e+04
  2.564387e+01    1.943280e+04
  2.566675e+01    1.956496e+04
  2.568964e+01    1.961744e+04
  2.571252e+01    1.969834e+04
  2.573541e+01    1.985768e+04
  2.575829e+01    1.997458e+04
  2.578118e+01    2.001717e+04
  2.580407e+01    2.009261e+04
  2.582695e+01    2.015902e+04
  2.584984e+01    2.017721e+04
  2.587272e+01    2.015776e+04
  2.589561e+01    2.017047e+04
  2.591849e+01    2.007634e+04
  2.594138e+01    1.998604e+04
  2.596426e+01    1.993681e+04
  2.598715e+01    1.977345e+04
  2.601003e+01    1.972181e+04
  2.603292e+01    1.963380e+04
  2.605580e+01    1.952133e+04
  2.607869e+01    1.946293e+04
  2.610157e+01    1.938753e+04
  2.612446e+01    1.930222e+04
  2.614735e+01    1.921150e+04
  2.617023e+01    1.912476e+04
  2.619312e+01    1.908843e+04
  2.621600e+01    1.911250e+04
  2.623889e+01    1.910032e+04
  2.626177e+01    1.917503e+04
  2.628466e+01    1.929950e+04
  2.630754e+01    1.951308e+04
  2.633043e+01    1.982710e+04
  2.635331e+01    2.031539e+04
  2.637620e+01    2.113835e+04
  2.639908e+01    2.241995e+04
  2.642197e+01    2.440321e+04
  2.644486e+01    2.716718e+04
  2.646774e+01    3.021549e+04
  2.649063e+01    3.221120e+04
  2.651351e+01    3.256635e+04
  2.653640e+01    3.157436e+04
  2.655928e+01    3.058056e+04
  2.658217e+01    3.082552e+04
  2.660505e+01    3.296821e+04
  2.662794e+01    3.693561e+04
  2.665082e+01    4.138364e+04
  2.667371e+01    4.398194e+04
  2.669659e+01    4.291732e+04
  2.671948e+01    3.863550e+04
  2.674237e+01    3.313913e+04
  2.676525e+01    2.823205e+04
  2.678814e+01    2.461518e+04
  2.681102e+01    2.214711e+04
  2.683391e+01    2.048872e+04
  2.685679e+01    1.940637e+04
  2.687968e+01    1.869582e+04
  2.690256e+01    1.814869e+04
  2.692545e+01    1.777621e+04
  2.694833e+01    1.748410e+04
  2.697122e+01    1.725694e+04
  2.699410e+01    1.709229e+04
  2.701699e+01    1.699620e+04
  2.703988e+01    1.685035e+04
  2.706276e+01    1.674326e+04
  2.708565e+01    1.667840e+04
  2.710853e+01    1.659269e+04
  2.713142e+01    1.651618e+04
  2.715430e+01    1.645096e+04
  2.717719e+01    1.638245e+04
  2.720007e+01    1.628596e+04
  2.722296e+01    1.623595e+04
  2.724584e+01    1.617691e+04
  2.726873e+01    1.614460e+04
  2.729161e+01    1.608083e+04
  2.731450e+01    1.601153e+04
  2.733738e+01    1.595388e+04
  2.736027e+01    1.590788e+04
  2.738316e+01    1.585943e+04
  2.740604e+01    1.580659e+04
  2.742893e+01    1.577519e+04
  2.745181e+01    1.577039e+04
  2.747470e+01    1.572820e+04
  2.749758e+01    1.567790e+04
  2.752047e+01    1.563607e+04
  2.754335e+01    1.561663e+04
  2.756624e+01    1.561062e+04
  2.758912e+01    1.558499e+04
  2.761201e+01    1.554960e+04
  2.763489e+01    1.551954e+04
  2.765778e+01    1.550844e+04
  2.768067e+01    1.550487e+04
  2.770355e+01    1.551245e+04
  2.772644e+01    1.548739e+04
  2.774932e+01    1.546615e+04
  2.777221e+01    1.548432e+04
  2.779509e+01    1.550231e+04
  2.781798e+01    1.554038e+04
  2.784086e+01    1.555752e+04
  2.786375e+01    1.559222e+04
  2.788663e+01    1.563504e+04
  2.790952e+01    1.568177e+04
  2.793240e+01    1.575995e+04
  2.795529e+01    1.586502e+04
  2.797818e+01    1.602184e+04
  2.800106e+01    1.627237e+04
  2.802395e+01    1.667095e+04
  2.804683e+01    1.730609e+04
  2.806972e+01    1.829126e+04
  2.809260e+01    1.958680e+04
  2.811549e+01    2.082255e+04
  2.813837e+01    2.143118e+04
  2.816126e+01    2.106207e+04
  2.818414e+01    1.995712e+04
  2.820703e+01    1.866272e+04
  2.822991e+01    1.757018e+04
  2.825280e+01    1.679202e+04
  2.827568e+01    1.626458e+04
  2.829857e+01    1.588190e+04
  2.832146e+01    1.558560e+04
  2.834434e+01    1.533429e+04
  2.836723e+01    1.512269e+04
  2.839011e+01    1.493672e+04
  2.841300e+01    1.476867e+04
  2.843588e+01    1.463036e+04
  2.845877e+01    1.449020e+04
  2.848165e+01    1.437499e+04
  2.850454e+01    1.427918e+04
  2.852742e+01    1.419195e+04
  2.855031e+01    1.411322e+04
  2.857319e+01    1.401005e+04
  2.859608e+01    1.392024e+04
  2.861897e+01    1.385485e+04
  2.864185e+01    1.378524e+04
  2.866474e+01    1.372333e+04
  2.868762e+01    1.364362e+04
  2.871051e+01    1.357901e+04
  2.873339e+01    1.352166e+04
  2.875628e+01    1.346416e+04
  2.877916e+01    1.341244e+04
  2.880205e+01    1.335495e+04
  2.882493e+01    1.331445e+04
  2.884782e+01    1.326885e+04
  2.887070e+01    1.322736e+04
  2.889359e+01    1.317741e+04
  2.891648e+01    1.312589e+04
  2.893936e+01    1.309663e+04
  2.896225e+01    1.306331e+04
  2.898513e+01    1.302577e+04
  2.900802e+01    1.300595e+04
  2.903090e+01    1.298469e+04
  2.905379e+01    1.296246e+04
  2.907667e+01    1.295773e+04
  2.909956e+01    1.294118e+04
  2.912244e+01    1.292949e+04
  2.914533e+01    1.292412e+04
  2.916821e+01    1.291703e+04
  2.919110e+01    1.288749e+04
  2.921398e+01    1.284686e+04
  2.923687e+01    1.279887e+04
  2.925976e+01    1.272878e+04
  2.928264e+01    1.266081e+04
  2.930553e+01    1.259506e+04
  2.932841e+01    1.251614e+04
  2.935130e+01    1.244332e+04
  2.937418e+01    1.237424e+04
  2.939707e+01    1.232154e+04
  2.941995e+01    1.226176e+04
  2.944284e+01    1.220388e+04
  2.946572e+01    1.217849e+04
  2.948861e+01    1.213169e+04
  2.951149e+01    1.208953e+04
  2.953438e+01    1.208902e+04
  2.955727e+01    1.210528e+04
  2.958015e+01    1.217231e+04
  2.960304e+01    1.233746e+04
  2.962592e+01    1.263316e+04
  2.964881e+01    1.306278e+04
  2.967169e+01    1.350889e+04
  2.969458e+01    1.372863e+04
  2.971746e+01    1.356635e+04
  2.974035e+01    1.310847e+04
  2.976323e+01    1.257878e+04
  2.978612e+01    1.215156e+04
  2.980900e+01    1.185998e+04
  2.983189e+01    1.168024e+04
  2.985478e+01    1.155890e+04
  2.987766e+01    1.146172e+04
  2.990055e+01    1.139856e+04
  2.992343e+01    1.135719e+04
  2.994632e+01    1.131681e+04
  2.996920e+01    1.127549e+04
  2.999209e+01    1.124956e+04
  3.001497e+01    1.123664e+04
  3.003786e+01    1.121603e+04
  3.006074e+01    1.118401e+04
  3.008363e+01    1.116449e+04
  3.010651e+01    1.116044e+04
  3.012940e+01    1.116034e+04
  3.015228e+01    1.113000e+04
  3.017517e+01    1.110927e+04
  3.019806e+01    1.111182e+04
  3.022094e+01    1.109345e+04
  3.024383e+01    1.107674e+04
  3.026671e+01    1.106547e+04
  3.028960e+01    1.106248e+04
  3.031248e+01    1.106431e+04
  3.033537e+01    1.106506e+04
  3.035825e+01    1.106465e+04
  3.038114e+01    1.105990e+04
  3.040402e+01    1.106638e+04
  3.042691e+01    1.108467e+04
  3.044979e+01    1.111433e+04
  3.047268e+01    1.114307e+04
  3.049557e+01    1.117676e+04
  3.051845e+01    1.120839e+04
  3.054134e+01    1.125604e+04
  3.056422e+01    1.134108e+04
  3.058711e+01    1.145242e+04
  3.060999e+01    1.159318e+04
  3.063288e+01    1.179757e+04
  3.065576e+01    1.209053e+04
  3.067865e+01    1.251059e+04
  3.070153e+01    1.313655e+04
  3.072442e+01    1.405231e+04
  3.074730e+01    1.543434e+04
  3.077019e+01    1.748274e+04
  3.079308e+01    2.047331e+04
  3.081596e+01    2.463736e+04
  3.083885e+01    3.010454e+04
  3.086173e+01    3.627961e+04
  3.088462e+01    4.145781e+04
  3.090750e+01    4.402029e+04
  3.093039e+01    4.302405e+04
  3.095327e+01    3.893246e+04
  3.097616e+01    3.331695e+04
  3.099904e+01    2.792263e+04
  3.102193e+01    2.373221e+04
  3.104481e+01    2.090242e+04
  3.106770e+01    1.948614e+04
  3.109059e+01    1.961658e+04
  3.111347e+01    2.157445e+04
  3.113636e+01    2.517038e+04
  3.115924e+01    2.898894e+04
  3.118213e+01    3.076934e+04
  3.120501e+01    2.922722e+04
  3.122790e+01    2.513558e+04
  3.125078e+01    2.045858e+04
  3.127367e+01    1.669132e+04
  3.129655e+01    1.421418e+04
  3.131944e+01    1.274139e+04
  3.134232e+01    1.187573e+04
  3.136521e+01    1.136063e+04
  3.138809e+01    1.103086e+04
  3.141098e+01    1.080576e+04
  3.143387e+01    1.064447e+04
  3.145675e+01    1.052556e+04
  3.147964e+01    1.042795e+04
  3.150252e+01    1.033511e+04
  3.152541e+01    1.026269e+04
  3.154829e+01    1.019792e+04
  3.157118e+01    1.014718e+04
  3.159406e+01    1.010247e+04
  3.161695e+01    1.006956e+04
  3.163983e+01    1.003004e+04
  3.166272e+01    9.994016e+03
  3.168560e+01    9.958480e+03
  3.170849e+01    9.932104e+03
  3.173138e+01    9.907262e+03
  3.175426e+01    9.877253e+03
  3.177715e+01    9.849782e+03
  3.180003e+01    9.835698e+03
  3.182292e+01    9.812596e+03
  3.184580e+01    9.791365e+03
  3.186869e+01    9.774028e+03
  3.189157e+01    9.761511e+03
  3.191446e+01    9.747702e+03
  3.193734e+01    9.736718e+03
  3.196023e+01    9.722465e+03
  3.198311e+01    9.704162e+03
  3.200600e+01    9.685772e+03
  3.202889e+01    9.675445e+03
  3.205177e+01    9.670695e+03
  3.207466e+01    9.658104e+03
  3.209754e+01    9.640730e+03
  3.212043e+01    9.638168e+03
  3.214331e+01    9.642612e+03
  3.216620e+01    9.647189e+03
  3.218908e+01    9.642196e+03
  3.221197e+01    9.638311e+03
  3.223485e+01    9.635357e+03
  3.225774e+01    9.637729e+03
  3.228062e+01    9.623540e+03
  3.230351e+01    9.600604e+03
  3.232639e+01    9.583010e+03
  3.234928e+01    9.566061e+03
  3.237217e+01    9.549093e+03
  3.239505e+01    9.526478e+03
  3.241794e+01    9.513530e+03
  3.244082e+01    9.511924e+03
  3.246371e+01    9.533056e+03
  3.248659e+01    9.594508e+03
  3.250948e+01    9.728994e+03
  3.253236e+01    9.991153e+03
  3.255525e+01    1.038442e+04
  3.257813e+01    1.083441e+04
  3.260102e+01    1.112815e+04
  3.262390e+01    1.108884e+04
  3.264679e+01    1.075033e+04
  3.266968e+01    1.030563e+04
  3.269256e+01    9.910888e+03
  3.271545e+01    9.641032e+03
  3.273833e+01    9.474295e+03
  3.276122e+01    9.371411e+03
  3.278410e+01    9.318371e+03
  3.280699e+01    9.295656e+03
  3.282987e+01    9.280417e+03
  3.285276e+01    9.268202e+03
  3.287564e+01    9.258885e+03
  3.289853e+01    9.259811e+03
  3.292141e+01    9.249259e+03
  3.294430e+01    9.238272e+03
  3.296719e+01    9.215909e+03
  3.299007e+01    9.188729e+03
  3.301296e+01    9.153327e+03
  3.303584e+01    9.113633e+03
  3.305873e+01    9.072462e+03
  3.308161e+01    9.020994e+03
  3.310450e+01    8.988375e+03
  3.312738e+01    8.965250e+03
  3.315027e+01    8.944619e+03
  3.317315e+01    8.918727e+03
  3.319604e+01    8.892435e+03
  3.321892e+01    8.865774e+03
  3.324181e+01    8.850006e+03
  3.326469e+01    8.838918e+03
  3.328758e+01    8.831938e+03
  3.331047e+01    8.818716e+03
  3.333335e+01    8.801542e+03
  3.335624e+01    8.792714e+03
  3.337912e+01    8.784445e+03
  3.340201e+01    8.770737e+03
  3.342489e+01    8.763925e+03
  3.344778e+01    8.754992e+03
  3.347066e+01    8.744591e+03
  3.349355e+01    8.739832e+03
  3.351643e+01    8.730511e+03
  3.353932e+01    8.726647e+03
  3.356220e+01    8.728685e+03
  3.358509e+01    8.732577e+03
  3.360798e+01    8.732389e+03
  3.363086e+01    8.730767e+03
  3.365375e+01    8.740347e+03
  3.367663e+01    8.752583e+03
  3.369952e+01    8.772398e+03
  3.372240e+01    8.796492e+03
  3.374529e+01    8.840022e+03
  3.376817e+01    8.921719e+03
  3.379106e+01    9.055447e+03
  3.381394e+01    9.269106e+03
  3.383683e+01    9.630236e+03
  3.385971e+01    1.029878e+04
  3.388260e+01    1.156024e+04
  3.390549e+01    1.378593e+04
  3.392837e+01    1.708756e+04
  3.395126e+01    2.064241e+04
  3.397414e+01    2.275853e+04
  3.399703e+01    2.224917e+04
  3.401991e+01    1.959714e+04
  3.404280e+01    1.618262e+04
  3.406568e+01    1.324198e+04
  3.408857e+01    1.126379e+04
  3.411145e+01    1.009985e+04
  3.413434e+01    9.435887e+03
  3.415722e+01    9.061558e+03
  3.418011e+01    8.840236e+03
  3.420300e+01    8.687866e+03
  3.422588e+01    8.584176e+03
  3.424877e+01    8.511261e+03
  3.427165e+01    8.452286e+03
  3.429454e+01    8.403108e+03
  3.431742e+01    8.358161e+03
  3.434031e+01    8.337308e+03
  3.436319e+01    8.314996e+03
  3.438608e+01    8.287017e+03
  3.440896e+01    8.268047e+03
  3.443185e+01    8.245602e+03
  3.445473e+01    8.228900e+03
  3.447762e+01    8.207730e+03
  3.450050e+01    8.203652e+03
  3.452339e+01    8.194410e+03
  3.454628e+01    8.182884e+03
  3.456916e+01    8.180945e+03
  3.459205e+01    8.175292e+03
  3.461493e+01    8.167670e+03
  3.463782e+01    8.158771e+03
  3.466070e+01    8.153210e+03
  3.468359e+01    8.150352e+03
  3.470647e+01    8.158760e+03
  3.472936e+01    8.157685e+03
  3.475224e+01    8.154843e+03
  3.477513e+01    8.151702e+03
  3.479801e+01    8.143819e+03
  3.482090e+01    8.146435e+03
  3.484379e+01    8.148845e+03
  3.486667e+01    8.159050e+03
  3.488956e+01    8.171599e+03
  3.491244e+01    8.180174e+03
  3.493533e+01    8.189376e+03
  3.495821e+01    8.190452e+03
  3.498110e+01    8.205695e+03
  3.500398e+01    8.208971e+03
  3.502687e+01    8.202690e+03
  3.504975e+01    8.193053e+03
  3.507264e+01    8.182394e+03
  3.509552e+01    8.166207e+03
  3.511841e+01    8.152481e+03
  3.514130e+01    8.123056e+03
  3.516418e+01    8.093591e+03
  3.518707e+01    8.053396e+03
  3.520995e+01    8.015655e+03
  3.523284e+01    7.981757e+03
  3.525572e+01    7.945690e+03
  3.527861e+01    7.914600e+03
  3.530149e+01    7.890275e+03
  3.532438e+01    7.856607e+03
  3.534726e+01    7.823964e+03
  3.537015e+01    7.794274e+03
  3.539303e+01    7.765975e+03
  3.541592e+01    7.745078e+03
  3.543880e+01    7.723490e+03
  3.546169e+01    7.702471e+03
  3.548458e+01    7.685152e+03
  3.550746e+01    7.673722e+03
  3.553035e+01    7.654131e+03
  3.555323e+01    7.639533e+03
  3.557612e+01    7.626948e+03
  3.559900e+01    7.612904e+03
  3.562189e+01    7.599385e+03
  3.564477e+01    7.587938e+03
  3.566766e+01    7.583189e+03
  3.569054e+01    7.574185e+03
  3.571343e+01    7.567769e+03
  3.573631e+01    7.563204e+03
  3.575920e+01    7.553400e+03
  3.578209e+01    7.547215e+03
  3.580497e+01    7.542684e+03
  3.582786e+01    7.541984e+03
  3.585074e+01    7.542253e+03
  3.587363e+01    7.537810e+03
  3.589651e+01    7.534700e+03
  3.591940e+01    7.533169e+03
  3.594228e+01    7.527812e+03
  3.596517e+01    7.529993e+03
  3.598805e+01    7.532775e+03
  3.601094e+01    7.534772e+03
  3.603382e+01    7.535262e+03
  3.605671e+01    7.533982e+03
  3.607960e+01    7.537175e+03
  3.610248e+01    7.542172e+03
  3.612537e+01    7.537131e+03
  3.614825e+01    7.537474e+03
  3.617114e+01    7.546281e+03
  3.619402e+01    7.560033e+03
  3.621691e+01    7.570274e+03
  3.623979e+01    7.578020e+03
  3.626268e+01    7.582595e+03
  3.628556e+01    7.590912e+03
  3.630845e+01    7.609963e+03
  3.633133e+01    7.629621e+03
  3.635422e+01    7.658444e+03
  3.637710e+01    7.697022e+03
  3.639999e+01    7.755355e+03
  3.642288e+01    7.852541e+03
  3.644576e+01    8.018237e+03
  3.646865e+01    8.338444e+03
  3.649153e+01    8.929938e+03
  3.651442e+01    9.929631e+03
  3.653730e+01    1.135530e+04
  3.656019e+01    1.272346e+04
  3.658307e+01    1.332707e+04
  3.660596e+01    1.290652e+04
  3.662884e+01    1.175363e+04
  3.665173e+01    1.040408e+04
  3.667461e+01    9.303226e+03
  3.669750e+01    8.596502e+03
  3.672039e+01    8.193059e+03
  3.674327e+01    7.965115e+03
  3.676616e+01    7.839341e+03
  3.678904e+01    7.766951e+03
  3.681193e+01    7.725110e+03
  3.683481e+01    7.698641e+03
  3.685770e+01    7.678856e+03
  3.688058e+01    7.682583e+03
  3.690347e+01    7.667938e+03
  3.692635e+01    7.660010e+03
  3.694924e+01    7.655301e+03
  3.697212e+01    7.659271e+03
  3.699501e+01    7.670875e+03
  3.701790e+01    7.664203e+03
  3.704078e+01    7.664909e+03
  3.706367e+01    7.667143e+03
  3.708655e+01    7.669859e+03
  3.710944e+01    7.683983e+03
  3.713232e+01    7.695480e+03
  3.715521e+01    7.713046e+03
  3.717809e+01    7.725964e+03
  3.720098e+01    7.735557e+03
  3.722386e+01    7.752695e+03
  3.724675e+01    7.762743e+03
  3.726963e+01    7.778067e+03
  3.729252e+01    7.798741e+03
  3.731541e+01    7.822943e+03
  3.733829e+01    7.852835e+03
  3.736118e+01    7.890279e+03
  3.738406e+01    7.925704e+03
  3.740695e+01    7.969117e+03
  3.742983e+01    8.018931e+03
  3.745272e+01    8.080073e+03
  3.747560e+01    8.152708e+03
  3.749849e+01    8.257654e+03
  3.752137e+01    8.387729e+03
  3.754426e+01    8.542462e+03
  3.756714e+01    8.739745e+03
  3.759003e+01    9.023249e+03
  3.761291e+01    9.418354e+03
  3.763580e+01    1.001190e+04
  3.765869e+01    1.097186e+04
  3.768157e+01    1.259977e+04
  3.770446e+01    1.557857e+04
  3.772734e+01    2.121964e+04
  3.775023e+01    3.143393e+04
  3.777311e+01    4.699633e+04
  3.779600e+01    6.411568e+04
  3.781888e+01    7.451904e+04
  3.784177e+01    7.301225e+04
  3.786465e+01    6.147636e+04
  3.788754e+01    4.573316e+04
  3.791042e+01    3.154207e+04
  3.793331e+01    2.175377e+04
  3.795620e+01    1.602975e+04
  3.797908e+01    1.291083e+04
  3.800197e+01    1.119628e+04
  3.802485e+01    1.019015e+04
  3.804774e+01    9.554864e+03
  3.807062e+01    9.135745e+03
  3.809351e+01    8.843665e+03
  3.811639e+01    8.626331e+03
  3.813928e+01    8.456114e+03
  3.816216e+01    8.323396e+03
  3.818505e+01    8.232325e+03
  3.820793e+01    8.154552e+03
  3.823082e+01    8.076374e+03
  3.825371e+01    8.021456e+03
  3.827659e+01    7.981838e+03
  3.829948e+01    7.944631e+03
  3.832236e+01    7.913322e+03
  3.834525e+01    7.876778e+03
  3.836813e+01    7.862842e+03
  3.839102e+01    7.845836e+03
  3.841390e+01    7.826707e+03
  3.843679e+01    7.807119e+03
  3.845967e+01    7.803819e+03
  3.848256e+01    7.793519e+03
  3.850544e+01    7.790066e+03
  3.852833e+01    7.789541e+03
  3.855121e+01    7.782025e+03
  3.857410e+01    7.777849e+03
  3.859699e+01    7.782041e+03
  3.861987e+01    7.783674e+03
  3.864276e+01    7.775489e+03
  3.866564e+01    7.767169e+03
  3.868853e+01    7.772403e+03
  3.871141e+01    7.767847e+03
  3.873430e+01    7.771769e+03
  3.875718e+01    7.772610e+03
  3.878007e+01    7.778460e+03
  3.880295e+01    7.782396e+03
  3.882584e+01    7.801750e+03
  3.884872e+01    7.817907e+03
  3.887161e+01    7.850479e+03
  3.889450e+01    7.920614e+03
  3.891738e+01    8.054125e+03
  3.894027e+01    8.304875e+03
  3.896315e+01    8.752192e+03
  3.898604e+01    9.410776e+03
  3.900892e+01    1.006614e+04
  3.903181e+01    1.038180e+04
  3.905469e+01    1.021369e+04
  3.907758e+01    9.692313e+03
  3.910046e+01    9.052053e+03
  3.912335e+01    8.508454e+03
  3.914623e+01    8.141413e+03
  3.916912e+01    7.929589e+03
  3.919201e+01    7.819020e+03
  3.921489e+01    7.735488e+03
  3.923778e+01    7.690841e+03
  3.926066e+01    7.658857e+03
  3.928355e+01    7.638054e+03
  3.930643e+01    7.614342e+03
  3.932932e+01    7.597794e+03
  3.935220e+01    7.587567e+03
  3.937509e+01    7.582595e+03
  3.939797e+01    7.569306e+03
  3.942086e+01    7.563246e+03
  3.944374e+01    7.551646e+03
  3.946663e+01    7.546287e+03
  3.948951e+01    7.539852e+03
  3.951240e+01    7.527467e+03
  3.953529e+01    7.517435e+03
  3.955817e+01    7.526934e+03
  3.958106e+01    7.536723e+03
  3.960394e+01    7.539596e+03
  3.962683e+01    7.534407e+03
  3.964971e+01    7.526911e+03
  3.967260e+01    7.527855e+03
  3.969548e+01    7.525462e+03
  3.971837e+01    7.518081e+03
  3.974125e+01    7.506988e+03
  3.976414e+01    7.500289e+03
  3.978702e+01    7.498170e+03
  3.980991e+01    7.486719e+03
  3.983280e+01    7.472513e+03
  3.985568e+01    7.473020e+03
  3.987857e+01    7.471864e+03
  3.990145e+01    7.476372e+03
  3.992434e+01    7.449756e+03
  3.994722e+01    7.429638e+03
  3.997011e+01    7.419638e+03
  3.999299e+01    7.404025e+03
  4.001588e+01    7.393892e+03
  4.003876e+01    7.389928e+03
  4.006165e+01    7.400038e+03
  4.008453e+01    7.434591e+03
  4.010742e+01    7.481479e+03
  4.013031e+01    7.565601e+03
  4.015319e+01    7.716086e+03
  4.017608e+01    7.892061e+03
  4.019896e+01    8.011968e+03
  4.022185e+01    8.010349e+03
  4.024473e+01    7.906325e+03
  4.026762e+01    7.746958e+03
  4.029050e+01    7.583812e+03
  4.031339e+01    7.463609e+03
  4.033627e+01    7.385358e+03
  4.035916e+01    7.336745e+03
  4.038204e+01    7.301997e+03
  4.040493e+01    7.286940e+03
  4.042782e+01    7.280780e+03
  4.045070e+01    7.275789e+03
  4.047359e+01    7.272729e+03
  4.049647e+01    7.255998e+03
  4.051936e+01    7.247237e+03
  4.054224e+01    7.240190e+03
  4.056513e+01    7.231665e+03
  4.058801e+01    7.230429e+03
  4.061090e+01    7.221772e+03
  4.063378e+01    7.223675e+03
  4.065667e+01    7.225447e+03
  4.067955e+01    7.216203e+03
  4.070244e+01    7.210331e+03
  4.072532e+01    7.208585e+03
  4.074821e+01    7.210447e+03
  4.077110e+01    7.209568e+03
  4.079398e+01    7.214959e+03
  4.081687e+01    7.210763e+03
  4.083975e+01    7.204194e+03
  4.086264e+01    7.205988e+03
  4.088552e+01    7.201449e+03
  4.090841e+01    7.204027e+03
  4.093129e+01    7.206373e+03
  4.095418e+01    7.217421e+03
  4.097706e+01    7.222526e+03
  4.099995e+01    7.231982e+03
  4.102283e+01    7.239083e+03
  4.104572e+01    7.251313e+03
  4.106861e+01    7.261547e+03
  4.109149e+01    7.279992e+03
  4.111438e+01    7.315690e+03
  4.113726e+01    7.351686e+03
  4.116015e+01    7.409886e+03
  4.118303e+01    7.496563e+03
  4.120592e+01    7.630928e+03
  4.122880e+01    7.895310e+03
  4.125169e+01    8.393953e+03
  4.127457e+01    9.312640e+03
  4.129746e+01    1.084784e+04
  4.132034e+01    1.277725e+04
  4.134323e+01    1.428910e+04
  4.136612e+01    1.461235e+04
  4.138900e+01    1.370403e+04
  4.141189e+01    1.209459e+04
  4.143477e+01    1.041773e+04
  4.145766e+01    9.134419e+03
  4.148054e+01    8.344788e+03
  4.150343e+01    7.915811e+03
  4.152631e+01    7.687050e+03
  4.154920e+01    7.567708e+03
  4.157208e+01    7.483370e+03
  4.159497e+01    7.436704e+03
  4.161785e+01    7.418929e+03
  4.164074e+01    7.404464e+03
  4.166362e+01    7.394848e+03
  4.168651e+01    7.385854e+03
  4.170940e+01    7.376894e+03
  4.173228e+01    7.365975e+03
  4.175517e+01    7.349900e+03
  4.177805e+01    7.339205e+03
  4.180094e+01    7.335521e+03
  4.182382e+01    7.323129e+03
  4.184671e+01    7.306385e+03
  4.186959e+01    7.291176e+03
  4.189248e+01    7.280422e+03
  4.191536e+01    7.272810e+03
  4.193825e+01    7.262085e+03
  4.196113e+01    7.254107e+03
  4.198402e+01    7.242235e+03
  4.200691e+01    7.237787e+03
  4.202979e+01    7.240452e+03
  4.205268e+01    7.243488e+03
  4.207556e+01    7.248755e+03
  4.209845e+01    7.255059e+03
  4.212133e+01    7.267132e+03
  4.214422e+01    7.282072e+03
  4.216710e+01    7.305903e+03
  4.218999e+01    7.324302e+03
  4.221287e+01    7.337510e+03
  4.223576e+01    7.359622e+03
  4.225864e+01    7.385382e+03
  4.228153e+01    7.413140e+03
  4.230442e+01    7.442768e+03
  4.232730e+01    7.480512e+03
  4.235019e+01    7.534117e+03
  4.237307e+01    7.633567e+03
  4.239596e+01    7.811979e+03
  4.241884e+01    8.123339e+03
  4.244173e+01    8.532360e+03
  4.246461e+01    8.841508e+03
  4.248750e+01    8.870182e+03
  4.251038e+01    8.654461e+03
  4.253327e+01    8.271089e+03
  4.255615e+01    7.860513e+03
  4.257904e+01    7.541931e+03
  4.260192e+01    7.340969e+03
  4.262481e+01    7.231383e+03
  4.264770e+01    7.158898e+03
  4.267058e+01    7.116889e+03
  4.269347e+01    7.086593e+03
  4.271635e+01    7.065735e+03
  4.273924e+01    7.049481e+03
  4.276212e+01    7.036022e+03
  4.278501e+01    7.018985e+03
  4.280789e+01    7.013861e+03
  4.283078e+01    6.993546e+03
  4.285366e+01    6.985921e+03
  4.287655e+01    6.978568e+03
  4.289943e+01    6.978699e+03
  4.292232e+01    6.980135e+03
  4.294521e+01    6.980798e+03
  4.296809e+01    6.980796e+03
  4.299098e+01    6.976189e+03
  4.301386e+01    6.973602e+03
  4.303675e+01    6.975006e+03
  4.305963e+01    6.972815e+03
  4.308252e+01    6.972472e+03
  4.310540e+01    6.982642e+03
  4.312829e+01    6.977837e+03
  4.315117e+01    6.979790e+03
  4.317406e+01    6.982355e+03
  4.319694e+01    6.997015e+03
  4.321983e+01    7.000181e+03
  4.324272e+01    7.005924e+03
  4.326560e+01    7.026230e+03
  4.328849e+01    7.040217e+03
  4.331137e+01    7.077317e+03
  4.333426e+01    7.107046e+03
  4.335714e+01    7.146060e+03
  4.338003e+01    7.186064e+03
  4.340291e+01    7.261849e+03
  4.342580e+01    7.390371e+03
  4.344868e+01    7.598480e+03
  4.347157e+01    8.006321e+03
  4.349445e+01    8.784945e+03
  4.351734e+01    1.007472e+04
  4.354022e+01    1.169010e+04
  4.356311e+01    1.295168e+04
  4.358600e+01    1.318428e+04
  4.360888e+01    1.244030e+04
  4.363177e+01    1.113851e+04
  4.365465e+01    9.720512e+03
  4.367754e+01    8.627766e+03
  4.370042e+01    7.965840e+03
  4.372331e+01    7.602169e+03
  4.374619e+01    7.423634e+03
  4.376908e+01    7.340638e+03
  4.379196e+01    7.295347e+03
  4.381485e+01    7.278500e+03
  4.383773e+01    7.282902e+03
  4.386062e+01    7.296820e+03
  4.388351e+01    7.331360e+03
  4.390639e+01    7.382772e+03
  4.392928e+01    7.442526e+03
  4.395216e+01    7.526746e+03
  4.397505e+01    7.625979e+03
  4.399793e+01    7.766199e+03
  4.402082e+01    7.961331e+03
  4.404370e+01    8.253462e+03
  4.406659e+01    8.658218e+03
  4.408947e+01    9.245131e+03
  4.411236e+01    1.011810e+04
  4.413524e+01    1.138227e+04
  4.415813e+01    1.317217e+04
  4.418102e+01    1.565817e+04
  4.420390e+01    1.862929e+04
  4.422679e+01    2.127159e+04
  4.424967e+01    2.255203e+04
  4.427256e+01    2.204874e+04
  4.429544e+01    2.021701e+04
  4.431833e+01    1.772044e+04
  4.434121e+01    1.516851e+04
  4.436410e+01    1.306769e+04
  4.438698e+01    1.152645e+04
  4.440987e+01    1.048301e+04
  4.443275e+01    9.810184e+03
  4.445564e+01    9.444474e+03
  4.447853e+01    9.382820e+03
  4.450141e+01    9.637764e+03
  4.452430e+01    1.037047e+04
  4.454718e+01    1.192146e+04
  4.457007e+01    1.499396e+04
  4.459295e+01    2.023995e+04
  4.461584e+01    2.683117e+04
  4.463872e+01    3.186505e+04
  4.466161e+01    3.278937e+04
  4.468449e+01    2.969452e+04
  4.470738e+01    2.421653e+04
  4.473026e+01    1.839091e+04
  4.475315e+01    1.387528e+04
  4.477603e+01    1.104275e+04
  4.479892e+01    9.476181e+03
  4.482181e+01    8.610060e+03
  4.484469e+01    8.092666e+03
  4.486758e+01    7.773917e+03
  4.489046e+01    7.554301e+03
  4.491335e+01    7.394593e+03
  4.493623e+01    7.310217e+03
  4.495912e+01    7.223016e+03
  4.498200e+01    7.159866e+03
  4.500489e+01    7.102613e+03
  4.502777e+01    7.067494e+03
  4.505066e+01    7.034227e+03
  4.507354e+01    6.998197e+03
  4.509643e+01    6.968317e+03
  4.511932e+01    6.952931e+03
  4.514220e+01    6.937481e+03
  4.516509e+01    6.919715e+03
  4.518797e+01    6.915754e+03
  4.521086e+01    6.909389e+03
  4.523374e+01    6.897375e+03
  4.525663e+01    6.889630e+03
  4.527951e+01    6.882359e+03
  4.530240e+01    6.882117e+03
  4.532528e+01    6.880303e+03
  4.534817e+01    6.881782e+03
  4.537105e+01    6.885757e+03
  4.539394e+01    6.889300e+03
  4.541683e+01    6.902141e+03
  4.543971e+01    6.918837e+03
  4.546260e+01    6.948836e+03
  4.548548e+01    6.990036e+03
  4.550837e+01    7.047233e+03
  4.553125e+01    7.138239e+03
  4.555414e+01    7.288557e+03
  4.557702e+01    7.551158e+03
  4.559991e+01    8.021514e+03
  4.562279e+01    8.908905e+03
  4.564568e+01    1.040172e+04
  4.566856e+01    1.232009e+04
  4.569145e+01    1.387720e+04
  4.571433e+01    1.426596e+04
  4.573722e+01    1.345173e+04
  4.576011e+01    1.191479e+04
  4.578299e+01    1.021681e+04
  4.580588e+01    8.866839e+03
  4.582876e+01    7.999427e+03
  4.585165e+01    7.540509e+03
  4.587453e+01    7.277969e+03
  4.589742e+01    7.125423e+03
  4.592030e+01    7.022946e+03
  4.594319e+01    6.969009e+03
  4.596607e+01    6.932938e+03
  4.598896e+01    6.910024e+03
  4.601184e+01    6.896019e+03
  4.603473e+01    6.882871e+03
  4.605762e+01    6.895162e+03
  4.608050e+01    6.883094e+03
  4.610339e+01    6.872053e+03
  4.612627e+01    6.893757e+03
  4.614916e+01    6.897220e+03
  4.617204e+01    6.912348e+03
  4.619493e+01    6.926884e+03
  4.621781e+01    6.938192e+03
  4.624070e+01    6.946071e+03
  4.626358e+01    6.956817e+03
  4.628647e+01    6.948463e+03
  4.630935e+01    6.939319e+03
  4.633224e+01    6.931677e+03
  4.635513e+01    6.902161e+03
  4.637801e+01    6.883729e+03
  4.640090e+01    6.855436e+03
  4.642378e+01    6.826675e+03
  4.644667e+01    6.820176e+03
  4.646955e+01    6.809409e+03
  4.649244e+01    6.821041e+03
  4.651532e+01    6.815668e+03
  4.653821e+01    6.818755e+03
  4.656109e+01    6.841688e+03
  4.658398e+01    6.889689e+03
  4.660686e+01    6.967956e+03
  4.662975e+01    7.096599e+03
  4.665263e+01    7.342778e+03
  4.667552e+01    7.749705e+03
  4.669841e+01    8.305357e+03
  4.672129e+01    8.824353e+03
  4.674418e+01    9.015795e+03
  4.676706e+01    8.848519e+03
  4.678995e+01    8.475331e+03
  4.681283e+01    8.001516e+03
  4.683572e+01    7.598032e+03
  4.685860e+01    7.330310e+03
  4.688149e+01    7.195789e+03
  4.690437e+01    7.127305e+03
  4.692726e+01    7.100301e+03
  4.695014e+01    7.083091e+03
  4.697303e+01    7.069621e+03
  4.699592e+01    7.079867e+03
  4.701880e+01    7.098711e+03
  4.704169e+01    7.109539e+03
  4.706457e+01    7.117764e+03
  4.708746e+01    7.101739e+03
  4.711034e+01    7.106982e+03
  4.713323e+01    7.127280e+03
  4.715611e+01    7.100407e+03
  4.717900e+01    7.099393e+03
  4.720188e+01    7.094893e+03
  4.722477e+01    7.099983e+03
  4.724765e+01    7.102138e+03
  4.727054e+01    7.091231e+03
  4.729343e+01    7.109549e+03
  4.731631e+01    7.112310e+03
  4.733920e+01    7.112973e+03
  4.736208e+01    7.150367e+03
  4.738497e+01    7.189141e+03
  4.740785e+01    7.218572e+03
  4.743074e+01    7.256302e+03
  4.745362e+01    7.273664e+03
  4.747651e+01    7.338148e+03
  4.749939e+01    7.411853e+03
  4.752228e+01    7.481582e+03
  4.754516e+01    7.549172e+03
  4.756805e+01    7.558236e+03
  4.759094e+01    7.709812e+03
  4.761382e+01    7.858289e+03
  4.763671e+01    7.976110e+03
  4.765959e+01    8.104971e+03
  4.768248e+01    8.371768e+03
  4.770536e+01    8.720122e+03
  4.772825e+01    8.940648e+03
  4.775113e+01    9.182870e+03
  4.777402e+01    8.933368e+03
  4.779690e+01    8.635288e+03
  4.781979e+01    8.016967e+03
  4.784267e+01    7.434249e+03
  4.786556e+01    6.225880e+03
  4.788844e+01    2.986898e+03