File: Output/ROCK_XRD/WAM39B_integrated/rampe3/wam39b_rampe_3_xrd_000002_integrated.dat
# == pyFAI calibration ==
# Distance Sample to Detector: 0.261615 m
# PONI: 2.023e-01, 2.348e-01 m
# Rotations: -0.026380 0.002005 0.000000 rad
#
# == Fit2d calibration ==
# Distance Sample-beamCenter: 261.707 mm
# Center: x=6119.331, y=5134.776 pix
# Tilt: 1.516 deg  TiltPlanRot: 4.347 deg
#
# Detector Rayonix SX165	 PixelSize= 3.950e-05, 3.950e-05 m
#    Detector has a mask: True
#    Detector has a dark current: False
#    detector has a flat field: False
#
# Wavelength: 1.12713e-10 m
# Mask applied: from detector
# Dark current applied: False
# Flat field applied: False
# Polarization factor: None
# Normalization factor: 1.0
# --> ROCK\\WAM39B_integrated\wam39b_rampe_3_xrd_000002_integrated.dat
#       2th_deg             I
  2.502596e+01    4.850250e+03
  2.504885e+01    1.272309e+04
  2.507173e+01    1.711248e+04
  2.509462e+01    1.815343e+04
  2.511750e+01    1.985599e+04
  2.514039e+01    2.058465e+04
  2.516327e+01    2.049111e+04
  2.518616e+01    2.030189e+04
  2.520905e+01    2.017605e+04
  2.523193e+01    1.994410e+04
  2.525482e+01    2.002258e+04
  2.527770e+01    2.038655e+04
  2.530059e+01    2.029827e+04
  2.532347e+01    2.008986e+04
  2.534636e+01    1.990071e+04
  2.536924e+01    1.978735e+04
  2.539213e+01    1.975479e+04
  2.541501e+01    1.974899e+04
  2.543790e+01    1.975407e+04
  2.546078e+01    1.979016e+04
  2.548367e+01    1.978511e+04
  2.550656e+01    1.965649e+04
  2.552944e+01    1.958188e+04
  2.555233e+01    1.987192e+04
  2.557521e+01    2.008778e+04
  2.559810e+01    2.015166e+04
  2.562098e+01    2.028891e+04
  2.564387e+01    2.045532e+04
  2.566675e+01    2.059324e+04
  2.568964e+01    2.062128e+04
  2.571252e+01    2.064719e+04
  2.573541e+01    2.072477e+04
  2.575829e+01    2.072055e+04
  2.578118e+01    2.062805e+04
  2.580407e+01    2.057824e+04
  2.582695e+01    2.050675e+04
  2.584984e+01    2.038448e+04
  2.587272e+01    2.023872e+04
  2.589561e+01    2.015187e+04
  2.591849e+01    2.001001e+04
  2.594138e+01    1.990292e+04
  2.596426e+01    1.984070e+04
  2.598715e+01    1.968102e+04
  2.601003e+01    1.963112e+04
  2.603292e+01    1.952991e+04
  2.605580e+01    1.942516e+04
  2.607869e+01    1.939767e+04
  2.610157e+01    1.938378e+04
  2.612446e+01    1.942451e+04
  2.614735e+01    1.951088e+04
  2.617023e+01    1.964496e+04
  2.619312e+01    1.989944e+04
  2.621600e+01    2.031960e+04
  2.623889e+01    2.086203e+04
  2.626177e+01    2.176406e+04
  2.628466e+01    2.315531e+04
  2.630754e+01    2.530986e+04
  2.633043e+01    2.842442e+04
  2.635331e+01    3.237052e+04
  2.637620e+01    3.629443e+04
  2.639908e+01    3.927098e+04
  2.642197e+01    4.147906e+04
  2.644486e+01    4.403546e+04
  2.646774e+01    4.717816e+04
  2.649063e+01    4.867040e+04
  2.651351e+01    4.700243e+04
  2.653640e+01    4.217926e+04
  2.655928e+01    3.606032e+04
  2.658217e+01    3.063259e+04
  2.660505e+01    2.659921e+04
  2.662794e+01    2.383808e+04
  2.665082e+01    2.194411e+04
  2.667371e+01    2.065170e+04
  2.669659e+01    1.974981e+04
  2.671948e+01    1.911510e+04
  2.674237e+01    1.865960e+04
  2.676525e+01    1.831302e+04
  2.678814e+01    1.803666e+04
  2.681102e+01    1.783126e+04
  2.683391e+01    1.765867e+04
  2.685679e+01    1.752481e+04
  2.687968e+01    1.742655e+04
  2.690256e+01    1.728300e+04
  2.692545e+01    1.719074e+04
  2.694833e+01    1.710099e+04
  2.697122e+01    1.701357e+04
  2.699410e+01    1.693832e+04
  2.701699e+01    1.691049e+04
  2.703988e+01    1.682030e+04
  2.706276e+01    1.674554e+04
  2.708565e+01    1.670875e+04
  2.710853e+01    1.665229e+04
  2.713142e+01    1.659879e+04
  2.715430e+01    1.655483e+04
  2.717719e+01    1.650329e+04
  2.720007e+01    1.643628e+04
  2.722296e+01    1.638709e+04
  2.724584e+01    1.632443e+04
  2.726873e+01    1.630836e+04
  2.729161e+01    1.626633e+04
  2.731450e+01    1.622461e+04
  2.733738e+01    1.617460e+04
  2.736027e+01    1.613715e+04
  2.738316e+01    1.609971e+04
  2.740604e+01    1.604649e+04
  2.742893e+01    1.600899e+04
  2.745181e+01    1.600365e+04
  2.747470e+01    1.597922e+04
  2.749758e+01    1.595671e+04
  2.752047e+01    1.592546e+04
  2.754335e+01    1.590548e+04
  2.756624e+01    1.591414e+04
  2.758912e+01    1.591726e+04
  2.761201e+01    1.591808e+04
  2.763489e+01    1.592365e+04
  2.765778e+01    1.594695e+04
  2.768067e+01    1.597540e+04
  2.770355e+01    1.602129e+04
  2.772644e+01    1.604324e+04
  2.774932e+01    1.607602e+04
  2.777221e+01    1.615371e+04
  2.779509e+01    1.623433e+04
  2.781798e+01    1.635470e+04
  2.784086e+01    1.649579e+04
  2.786375e+01    1.670006e+04
  2.788663e+01    1.697497e+04
  2.790952e+01    1.738992e+04
  2.793240e+01    1.803692e+04
  2.795529e+01    1.897636e+04
  2.797818e+01    2.020773e+04
  2.800106e+01    2.141875e+04
  2.802395e+01    2.201647e+04
  2.804683e+01    2.160949e+04
  2.806972e+01    2.041027e+04
  2.809260e+01    1.899666e+04
  2.811549e+01    1.780998e+04
  2.813837e+01    1.698733e+04
  2.816126e+01    1.643115e+04
  2.818414e+01    1.603535e+04
  2.820703e+01    1.574489e+04
  2.822991e+01    1.550495e+04
  2.825280e+01    1.530647e+04
  2.827568e+01    1.516558e+04
  2.829857e+01    1.502533e+04
  2.832146e+01    1.489225e+04
  2.834434e+01    1.477299e+04
  2.836723e+01    1.466801e+04
  2.839011e+01    1.457270e+04
  2.841300e+01    1.447948e+04
  2.843588e+01    1.440002e+04
  2.845877e+01    1.431010e+04
  2.848165e+01    1.424316e+04
  2.850454e+01    1.419166e+04
  2.852742e+01    1.413400e+04
  2.855031e+01    1.408865e+04
  2.857319e+01    1.402064e+04
  2.859608e+01    1.395853e+04
  2.861897e+01    1.391480e+04
  2.864185e+01    1.386676e+04
  2.866474e+01    1.382787e+04
  2.868762e+01    1.376131e+04
  2.871051e+01    1.371537e+04
  2.873339e+01    1.368131e+04
  2.875628e+01    1.363306e+04
  2.877916e+01    1.360056e+04
  2.880205e+01    1.356946e+04
  2.882493e+01    1.354622e+04
  2.884782e+01    1.352718e+04
  2.887070e+01    1.351177e+04
  2.889359e+01    1.350512e+04
  2.891648e+01    1.350065e+04
  2.893936e+01    1.348846e+04
  2.896225e+01    1.346390e+04
  2.898513e+01    1.343366e+04
  2.900802e+01    1.340234e+04
  2.903090e+01    1.334059e+04
  2.905379e+01    1.325990e+04
  2.907667e+01    1.318790e+04
  2.909956e+01    1.310864e+04
  2.912244e+01    1.303169e+04
  2.914533e+01    1.296041e+04
  2.916821e+01    1.290157e+04
  2.919110e+01    1.283643e+04
  2.921398e+01    1.276969e+04
  2.923687e+01    1.271482e+04
  2.925976e+01    1.265029e+04
  2.928264e+01    1.258943e+04
  2.930553e+01    1.254981e+04
  2.932841e+01    1.250017e+04
  2.935130e+01    1.245778e+04
  2.937418e+01    1.242516e+04
  2.939707e+01    1.242121e+04
  2.941995e+01    1.240485e+04
  2.944284e+01    1.243073e+04
  2.946572e+01    1.252961e+04
  2.948861e+01    1.270874e+04
  2.951149e+01    1.302126e+04
  2.953438e+01    1.346800e+04
  2.955727e+01    1.387396e+04
  2.958015e+01    1.401019e+04
  2.960304e+01    1.378085e+04
  2.962592e+01    1.329990e+04
  2.964881e+01    1.277312e+04
  2.967169e+01    1.234990e+04
  2.969458e+01    1.208122e+04
  2.971746e+01    1.191373e+04
  2.974035e+01    1.180686e+04
  2.976323e+01    1.172184e+04
  2.978612e+01    1.167154e+04
  2.980900e+01    1.162540e+04
  2.983189e+01    1.157486e+04
  2.985478e+01    1.153169e+04
  2.987766e+01    1.149078e+04
  2.990055e+01    1.146579e+04
  2.992343e+01    1.145273e+04
  2.994632e+01    1.143531e+04
  2.996920e+01    1.140885e+04
  2.999209e+01    1.139237e+04
  3.001497e+01    1.139051e+04
  3.003786e+01    1.138956e+04
  3.006074e+01    1.136959e+04
  3.008363e+01    1.134840e+04
  3.010651e+01    1.134880e+04
  3.012940e+01    1.136057e+04
  3.015228e+01    1.135039e+04
  3.017517e+01    1.134222e+04
  3.019806e+01    1.135501e+04
  3.022094e+01    1.134855e+04
  3.024383e+01    1.134228e+04
  3.026671e+01    1.135026e+04
  3.028960e+01    1.138061e+04
  3.031248e+01    1.141459e+04
  3.033537e+01    1.147304e+04
  3.035825e+01    1.154990e+04
  3.038114e+01    1.163550e+04
  3.040402e+01    1.174998e+04
  3.042691e+01    1.191783e+04
  3.044979e+01    1.215099e+04
  3.047268e+01    1.247440e+04
  3.049557e+01    1.296718e+04
  3.051845e+01    1.370989e+04
  3.054134e+01    1.489333e+04
  3.056422e+01    1.682462e+04
  3.058711e+01    1.991646e+04
  3.060999e+01    2.469549e+04
  3.063288e+01    3.153246e+04
  3.065576e+01    3.973480e+04
  3.067865e+01    4.652820e+04
  3.070153e+01    4.875899e+04
  3.072442e+01    4.585098e+04
  3.074730e+01    3.955514e+04
  3.077019e+01    3.238502e+04
  3.079308e+01    2.631438e+04
  3.081596e+01    2.175863e+04
  3.083885e+01    1.861769e+04
  3.086173e+01    1.657638e+04
  3.088462e+01    1.536250e+04
  3.090750e+01    1.479574e+04
  3.093039e+01    1.487571e+04
  3.095327e+01    1.580142e+04
  3.097616e+01    1.794812e+04
  3.099904e+01    2.160116e+04
  3.102193e+01    2.617433e+04
  3.104481e+01    2.974693e+04
  3.106770e+01    3.023602e+04
  3.109059e+01    2.734703e+04
  3.111347e+01    2.274303e+04
  3.113636e+01    1.838589e+04
  3.115924e+01    1.528418e+04
  3.118213e+01    1.339774e+04
  3.120501e+01    1.231171e+04
  3.122790e+01    1.167857e+04
  3.125078e+01    1.129000e+04
  3.127367e+01    1.103416e+04
  3.129655e+01    1.085386e+04
  3.131944e+01    1.071830e+04
  3.134232e+01    1.060979e+04
  3.136521e+01    1.052558e+04
  3.138809e+01    1.045772e+04
  3.141098e+01    1.040248e+04
  3.143387e+01    1.036317e+04
  3.145675e+01    1.032044e+04
  3.147964e+01    1.027576e+04
  3.150252e+01    1.023826e+04
  3.152541e+01    1.020701e+04
  3.154829e+01    1.016995e+04
  3.157118e+01    1.013664e+04
  3.159406e+01    1.010853e+04
  3.161695e+01    1.007743e+04
  3.163983e+01    1.005259e+04
  3.166272e+01    1.003252e+04
  3.168560e+01    1.001523e+04
  3.170849e+01    9.997324e+03
  3.173138e+01    9.972572e+03
  3.175426e+01    9.941902e+03
  3.177715e+01    9.929361e+03
  3.180003e+01    9.923429e+03
  3.182292e+01    9.911834e+03
  3.184580e+01    9.907167e+03
  3.186869e+01    9.893316e+03
  3.189157e+01    9.876172e+03
  3.191446e+01    9.866354e+03
  3.193734e+01    9.858174e+03
  3.196023e+01    9.855005e+03
  3.198311e+01    9.847148e+03
  3.200600e+01    9.840960e+03
  3.202889e+01    9.839946e+03
  3.205177e+01    9.839219e+03
  3.207466e+01    9.833287e+03
  3.209754e+01    9.824224e+03
  3.212043e+01    9.820263e+03
  3.214331e+01    9.814456e+03
  3.216620e+01    9.805303e+03
  3.218908e+01    9.789887e+03
  3.221197e+01    9.763135e+03
  3.223485e+01    9.734817e+03
  3.225774e+01    9.717121e+03
  3.228062e+01    9.706707e+03
  3.230351e+01    9.700631e+03
  3.232639e+01    9.710987e+03
  3.234928e+01    9.751451e+03
  3.237217e+01    9.861075e+03
  3.239505e+01    1.007212e+04
  3.241794e+01    1.042347e+04
  3.244082e+01    1.086904e+04
  3.246371e+01    1.121543e+04
  3.248659e+01    1.125871e+04
  3.250948e+01    1.099552e+04
  3.253236e+01    1.057091e+04
  3.255525e+01    1.015231e+04
  3.257813e+01    9.854362e+03
  3.260102e+01    9.676607e+03
  3.262390e+01    9.578833e+03
  3.264679e+01    9.526859e+03
  3.266968e+01    9.493117e+03
  3.269256e+01    9.465595e+03
  3.271545e+01    9.457829e+03
  3.273833e+01    9.451557e+03
  3.276122e+01    9.443563e+03
  3.278410e+01    9.428341e+03
  3.280699e+01    9.415613e+03
  3.282987e+01    9.398204e+03
  3.285276e+01    9.367410e+03
  3.287564e+01    9.326377e+03
  3.289853e+01    9.292633e+03
  3.292141e+01    9.245909e+03
  3.294430e+01    9.207631e+03
  3.296719e+01    9.170683e+03
  3.299007e+01    9.145722e+03
  3.301296e+01    9.119429e+03
  3.303584e+01    9.097376e+03
  3.305873e+01    9.070675e+03
  3.308161e+01    9.049703e+03
  3.310450e+01    9.035152e+03
  3.312738e+01    9.018507e+03
  3.315027e+01    9.001862e+03
  3.317315e+01    8.994553e+03
  3.319604e+01    8.987912e+03
  3.321892e+01    8.981671e+03
  3.324181e+01    8.975378e+03
  3.326469e+01    8.960410e+03
  3.328758e+01    8.959081e+03
  3.331047e+01    8.961386e+03
  3.333335e+01    8.946142e+03
  3.335624e+01    8.931485e+03
  3.337912e+01    8.927530e+03
  3.340201e+01    8.925925e+03
  3.342489e+01    8.922505e+03
  3.344778e+01    8.915904e+03
  3.347066e+01    8.910380e+03
  3.349355e+01    8.910034e+03
  3.351643e+01    8.909444e+03
  3.353932e+01    8.920043e+03
  3.356220e+01    8.951146e+03
  3.358509e+01    8.988668e+03
  3.360798e+01    9.037077e+03
  3.363086e+01    9.115546e+03
  3.365375e+01    9.245222e+03
  3.367663e+01    9.449884e+03
  3.369952e+01    9.816834e+03
  3.372240e+01    1.048842e+04
  3.374529e+01    1.172478e+04
  3.376817e+01    1.391051e+04
  3.379106e+01    1.716667e+04
  3.381394e+01    2.070214e+04
  3.383683e+01    2.280753e+04
  3.385971e+01    2.234575e+04
  3.388260e+01    1.969262e+04
  3.390549e+01    1.625420e+04
  3.392837e+01    1.331324e+04
  3.395126e+01    1.134824e+04
  3.397414e+01    1.021710e+04
  3.399703e+01    9.584954e+03
  3.401991e+01    9.230167e+03
  3.404280e+01    9.018016e+03
  3.406568e+01    8.869954e+03
  3.408857e+01    8.766847e+03
  3.411145e+01    8.693724e+03
  3.413434e+01    8.626706e+03
  3.415722e+01    8.587068e+03
  3.418011e+01    8.558740e+03
  3.420300e+01    8.526685e+03
  3.422588e+01    8.499101e+03
  3.424877e+01    8.476148e+03
  3.427165e+01    8.456817e+03
  3.429454e+01    8.437881e+03
  3.431742e+01    8.425045e+03
  3.434031e+01    8.414084e+03
  3.436319e+01    8.404229e+03
  3.438608e+01    8.393365e+03
  3.440896e+01    8.382656e+03
  3.443185e+01    8.374472e+03
  3.445473e+01    8.363298e+03
  3.447762e+01    8.346681e+03
  3.450050e+01    8.340108e+03
  3.452339e+01    8.329263e+03
  3.454628e+01    8.324409e+03
  3.456916e+01    8.315086e+03
  3.459205e+01    8.311511e+03
  3.461493e+01    8.306860e+03
  3.463782e+01    8.306116e+03
  3.466070e+01    8.300353e+03
  3.468359e+01    8.298018e+03
  3.470647e+01    8.301331e+03
  3.472936e+01    8.308917e+03
  3.475224e+01    8.307522e+03
  3.477513e+01    8.307126e+03
  3.479801e+01    8.311385e+03
  3.482090e+01    8.321891e+03
  3.484379e+01    8.324319e+03
  3.486667e+01    8.334454e+03
  3.488956e+01    8.339757e+03
  3.491244e+01    8.339054e+03
  3.493533e+01    8.339519e+03
  3.495821e+01    8.327511e+03
  3.498110e+01    8.319054e+03
  3.500398e+01    8.296399e+03
  3.502687e+01    8.269971e+03
  3.504975e+01    8.248021e+03
  3.507264e+01    8.221772e+03
  3.509552e+01    8.182319e+03
  3.511841e+01    8.152039e+03
  3.514130e+01    8.115695e+03
  3.516418e+01    8.090403e+03
  3.518707e+01    8.050715e+03
  3.520995e+01    8.025529e+03
  3.523284e+01    8.010777e+03
  3.525572e+01    7.995405e+03
  3.527861e+01    7.974722e+03
  3.530149e+01    7.954825e+03
  3.532438e+01    7.930124e+03
  3.534726e+01    7.903875e+03
  3.537015e+01    7.883132e+03
  3.539303e+01    7.858787e+03
  3.541592e+01    7.841540e+03
  3.543880e+01    7.822928e+03
  3.546169e+01    7.800332e+03
  3.548458e+01    7.789320e+03
  3.550746e+01    7.782938e+03
  3.553035e+01    7.776503e+03
  3.555323e+01    7.762288e+03
  3.557612e+01    7.746700e+03
  3.559900e+01    7.731569e+03
  3.562189e+01    7.717502e+03
  3.564477e+01    7.713857e+03
  3.566766e+01    7.714208e+03
  3.569054e+01    7.704157e+03
  3.571343e+01    7.700948e+03
  3.573631e+01    7.698227e+03
  3.575920e+01    7.687481e+03
  3.578209e+01    7.687805e+03
  3.580497e+01    7.682540e+03
  3.582786e+01    7.669522e+03
  3.585074e+01    7.668902e+03
  3.587363e+01    7.677553e+03
  3.589651e+01    7.676198e+03
  3.591940e+01    7.676928e+03
  3.594228e+01    7.672067e+03
  3.596517e+01    7.676681e+03
  3.598805e+01    7.684887e+03
  3.601094e+01    7.688199e+03
  3.603382e+01    7.688335e+03
  3.605671e+01    7.690521e+03
  3.607960e+01    7.706205e+03
  3.610248e+01    7.714772e+03
  3.612537e+01    7.719576e+03
  3.614825e+01    7.736037e+03
  3.617114e+01    7.755292e+03
  3.619402e+01    7.779086e+03
  3.621691e+01    7.813642e+03
  3.623979e+01    7.864575e+03
  3.626268e+01    7.942611e+03
  3.628556e+01    8.061520e+03
  3.630845e+01    8.285787e+03
  3.633133e+01    8.695595e+03
  3.635422e+01    9.444441e+03
  3.637710e+01    1.063882e+04
  3.639999e+01    1.208684e+04
  3.642288e+01    1.316371e+04
  3.644576e+01    1.327613e+04
  3.646865e+01    1.245450e+04
  3.649153e+01    1.115247e+04
  3.651442e+01    9.886735e+03
  3.653730e+01    9.006951e+03
  3.656019e+01    8.489069e+03
  3.658307e+01    8.205207e+03
  3.660596e+01    8.055024e+03
  3.662884e+01    7.962117e+03
  3.665173e+01    7.902886e+03
  3.667461e+01    7.869660e+03
  3.669750e+01    7.851663e+03
  3.672039e+01    7.837049e+03
  3.674327e+01    7.828808e+03
  3.676616e+01    7.820898e+03
  3.678904e+01    7.814350e+03
  3.681193e+01    7.823435e+03
  3.683481e+01    7.828147e+03
  3.685770e+01    7.829318e+03
  3.688058e+01    7.839361e+03
  3.690347e+01    7.843084e+03
  3.692635e+01    7.850493e+03
  3.694924e+01    7.855794e+03
  3.697212e+01    7.860251e+03
  3.699501e+01    7.877852e+03
  3.701790e+01    7.885995e+03
  3.704078e+01    7.899903e+03
  3.706367e+01    7.914419e+03
  3.708655e+01    7.932694e+03
  3.710944e+01    7.963304e+03
  3.713232e+01    7.981075e+03
  3.715521e+01    8.011124e+03
  3.717809e+01    8.048732e+03
  3.720098e+01    8.084739e+03
  3.722386e+01    8.120178e+03
  3.724675e+01    8.156150e+03
  3.726963e+01    8.203384e+03
  3.729252e+01    8.262203e+03
  3.731541e+01    8.335293e+03
  3.733829e+01    8.429103e+03
  3.736118e+01    8.555105e+03
  3.738406e+01    8.696875e+03
  3.740695e+01    8.883237e+03
  3.742983e+01    9.133144e+03
  3.745272e+01    9.494349e+03
  3.747560e+01    1.001879e+04
  3.749849e+01    1.083761e+04
  3.752137e+01    1.222326e+04
  3.754426e+01    1.471846e+04
  3.756714e+01    1.942437e+04
  3.759003e+01    2.813507e+04
  3.761291e+01    4.223262e+04
  3.763580e+01    5.963921e+04
  3.765869e+01    7.289121e+04
  3.768157e+01    7.498415e+04
  3.770446e+01    6.561771e+04
  3.772734e+01    5.006295e+04
  3.775023e+01    3.473373e+04
  3.777311e+01    2.365796e+04
  3.779600e+01    1.713897e+04
  3.781888e+01    1.360371e+04
  3.784177e+01    1.168889e+04
  3.786465e+01    1.058437e+04
  3.788754e+01    9.905581e+03
  3.791042e+01    9.455327e+03
  3.793331e+01    9.139371e+03
  3.795620e+01    8.904874e+03
  3.797908e+01    8.714179e+03
  3.800197e+01    8.576168e+03
  3.802485e+01    8.473402e+03
  3.804774e+01    8.385855e+03
  3.807062e+01    8.320397e+03
  3.809351e+01    8.266607e+03
  3.811639e+01    8.219535e+03
  3.813928e+01    8.175810e+03
  3.816216e+01    8.141295e+03
  3.818505e+01    8.118194e+03
  3.820793e+01    8.088094e+03
  3.823082e+01    8.057947e+03
  3.825371e+01    8.046337e+03
  3.827659e+01    8.035750e+03
  3.829948e+01    8.025579e+03
  3.832236e+01    8.015765e+03
  3.834525e+01    8.003197e+03
  3.836813e+01    7.995693e+03
  3.839102e+01    7.988398e+03
  3.841390e+01    7.979736e+03
  3.843679e+01    7.972595e+03
  3.845967e+01    7.977402e+03
  3.848256e+01    7.969776e+03
  3.850544e+01    7.974815e+03
  3.852833e+01    7.984121e+03
  3.855121e+01    7.988178e+03
  3.857410e+01    7.987052e+03
  3.859699e+01    7.989486e+03
  3.861987e+01    7.990051e+03
  3.864276e+01    7.997668e+03
  3.866564e+01    8.008931e+03
  3.868853e+01    8.030506e+03
  3.871141e+01    8.059332e+03
  3.873430e+01    8.117375e+03
  3.875718e+01    8.238154e+03
  3.878007e+01    8.474894e+03
  3.880295e+01    8.877842e+03
  3.882584e+01    9.502571e+03
  3.884872e+01    1.014237e+04
  3.887161e+01    1.047063e+04
  3.889450e+01    1.033980e+04
  3.891738e+01    9.852319e+03
  3.894027e+01    9.232909e+03
  3.896315e+01    8.694717e+03
  3.898604e+01    8.339535e+03
  3.900892e+01    8.141882e+03
  3.903181e+01    8.034403e+03
  3.905469e+01    7.969589e+03
  3.907758e+01    7.926134e+03
  3.910046e+01    7.897276e+03
  3.912335e+01    7.880037e+03
  3.914623e+01    7.863548e+03
  3.916912e+01    7.853107e+03
  3.919201e+01    7.847260e+03
  3.921489e+01    7.824375e+03
  3.923778e+01    7.814271e+03
  3.926066e+01    7.804802e+03
  3.928355e+01    7.801110e+03
  3.930643e+01    7.795373e+03
  3.932932e+01    7.792040e+03
  3.935220e+01    7.791235e+03
  3.937509e+01    7.794465e+03
  3.939797e+01    7.788306e+03
  3.942086e+01    7.795453e+03
  3.944374e+01    7.786056e+03
  3.946663e+01    7.789122e+03
  3.948951e+01    7.784817e+03
  3.951240e+01    7.785688e+03
  3.953529e+01    7.779615e+03
  3.955817e+01    7.780670e+03
  3.958106e+01    7.773299e+03
  3.960394e+01    7.768070e+03
  3.962683e+01    7.947931e+03
  3.964971e+01    8.023101e+03
  3.967260e+01    8.013729e+03
  3.969548e+01    7.892223e+03
  3.971837e+01    7.707298e+03
  3.974125e+01    7.686978e+03
  3.976414e+01    7.664523e+03
  3.978702e+01    7.653971e+03
  3.980991e+01    7.638868e+03
  3.983280e+01    7.632255e+03
  3.985568e+01    7.635944e+03
  3.987857e+01    7.644258e+03
  3.990145e+01    7.672354e+03
  3.992434e+01    7.678842e+03
  3.994722e+01    7.721925e+03
  3.997011e+01    7.811806e+03
  3.999299e+01    7.955838e+03
  4.001588e+01    8.127438e+03
  4.003876e+01    8.223147e+03
  4.006165e+01    8.214249e+03
  4.008453e+01    8.098468e+03
  4.010742e+01    7.932661e+03
  4.013031e+01    7.781865e+03
  4.015319e+01    7.673935e+03
  4.017608e+01    7.611792e+03
  4.019896e+01    7.576367e+03
  4.022185e+01    7.557049e+03
  4.024473e+01    7.546449e+03
  4.026762e+01    7.537195e+03
  4.029050e+01    7.520236e+03
  4.031339e+01    7.508166e+03
  4.033627e+01    7.502723e+03
  4.035916e+01    7.498973e+03
  4.038204e+01    7.496141e+03
  4.040493e+01    7.492601e+03
  4.042782e+01    7.484104e+03
  4.045070e+01    7.488711e+03
  4.047359e+01    7.486054e+03
  4.049647e+01    7.473371e+03
  4.051936e+01    7.470472e+03
  4.054224e+01    7.462800e+03
  4.056513e+01    7.457923e+03
  4.058801e+01    7.456018e+03
  4.061090e+01    7.453068e+03
  4.063378e+01    7.447507e+03
  4.065667e+01    7.448122e+03
  4.067955e+01    7.454370e+03
  4.070244e+01    7.452774e+03
  4.072532e+01    7.451712e+03
  4.074821e+01    7.457795e+03
  4.077110e+01    7.465005e+03
  4.079398e+01    7.473975e+03
  4.081687e+01    7.472015e+03
  4.083975e+01    7.481055e+03
  4.086264e+01    7.493821e+03
  4.088552e+01    7.501654e+03
  4.090841e+01    7.519032e+03
  4.093129e+01    7.540182e+03
  4.095418e+01    7.576344e+03
  4.097706e+01    7.614367e+03
  4.099995e+01    7.673360e+03
  4.102283e+01    7.767978e+03
  4.104572e+01    7.945226e+03
  4.106861e+01    8.268275e+03
  4.109149e+01    8.882107e+03
  4.111438e+01    1.001075e+04
  4.113726e+01    1.170029e+04
  4.116015e+01    1.354502e+04
  4.118303e+01    1.463174e+04
  4.120592e+01    1.444283e+04
  4.122880e+01    1.322845e+04
  4.125169e+01    1.154106e+04
  4.127457e+01    9.993378e+03
  4.129746e+01    8.951438e+03
  4.132034e+01    8.354753e+03
  4.134323e+01    8.048336e+03
  4.136612e+01    7.884723e+03
  4.138900e+01    7.786758e+03
  4.141189e+01    7.717338e+03
  4.143477e+01    7.675975e+03
  4.145766e+01    7.643451e+03
  4.148054e+01    7.615526e+03
  4.150343e+01    7.591117e+03
  4.152631e+01    7.572842e+03
  4.154920e+01    7.565019e+03
  4.157208e+01    7.538396e+03
  4.159497e+01    7.519825e+03
  4.161785e+01    7.513322e+03
  4.164074e+01    7.500967e+03
  4.166362e+01    7.488182e+03
  4.168651e+01    7.480829e+03
  4.170940e+01    7.468693e+03
  4.173228e+01    7.460104e+03
  4.175517e+01    7.452960e+03
  4.177805e+01    7.450528e+03
  4.180094e+01    7.447176e+03
  4.182382e+01    7.444265e+03
  4.184671e+01    7.443456e+03
  4.186959e+01    7.451707e+03
  4.189248e+01    7.455217e+03
  4.191536e+01    7.464517e+03
  4.193825e+01    7.480484e+03
  4.196113e+01    7.503521e+03
  4.198402e+01    7.520434e+03
  4.200691e+01    7.542956e+03
  4.202979e+01    7.564377e+03
  4.205268e+01    7.671395e+03
  4.207556e+01    7.950489e+03
  4.209845e+01    7.883039e+03
  4.212133e+01    7.681382e+03
  4.214422e+01    7.663981e+03
  4.216710e+01    7.697356e+03
  4.218999e+01    7.765198e+03
  4.221287e+01    7.898757e+03
  4.223576e+01    8.139989e+03
  4.225864e+01    8.498046e+03
  4.228153e+01    8.846267e+03
  4.230442e+01    9.000688e+03
  4.232730e+01    8.885332e+03
  4.235019e+01    8.564278e+03
  4.237307e+01    8.171658e+03
  4.239596e+01    7.835199e+03
  4.241884e+01    7.616681e+03
  4.244173e+01    7.486523e+03
  4.246461e+01    7.409002e+03
  4.248750e+01    7.364900e+03
  4.251038e+01    7.344003e+03
  4.253327e+01    7.318709e+03
  4.255615e+01    7.302195e+03
  4.257904e+01    7.286563e+03
  4.260192e+01    7.273401e+03
  4.262481e+01    7.260356e+03
  4.264770e+01    7.255199e+03
  4.267058e+01    7.256010e+03
  4.269347e+01    7.251183e+03
  4.271635e+01    7.250138e+03
  4.273924e+01    7.243917e+03
  4.276212e+01    7.241387e+03
  4.278501e+01    7.236684e+03
  4.280789e+01    7.245191e+03
  4.283078e+01    7.225155e+03
  4.285366e+01    7.229534e+03
  4.287655e+01    7.227774e+03
  4.289943e+01    7.231549e+03
  4.292232e+01    7.231498e+03
  4.294521e+01    7.237380e+03
  4.296809e+01    7.242417e+03
  4.299098e+01    7.245660e+03
  4.301386e+01    7.253092e+03
  4.303675e+01    7.260661e+03
  4.305963e+01    7.263828e+03
  4.308252e+01    7.286079e+03
  4.310540e+01    7.313706e+03
  4.312829e+01    7.331463e+03
  4.315117e+01    7.365559e+03
  4.317406e+01    7.392536e+03
  4.319694e+01    7.435281e+03
  4.321983e+01    7.495725e+03
  4.324272e+01    7.597266e+03
  4.326560e+01    7.794049e+03
  4.328849e+01    8.146658e+03
  4.331137e+01    8.832411e+03
  4.333426e+01    1.000220e+04
  4.335714e+01    1.157067e+04
  4.338003e+01    1.290902e+04
  4.340291e+01    1.335382e+04
  4.342580e+01    1.279188e+04
  4.344868e+01    1.155573e+04
  4.347157e+01    1.013204e+04
  4.349445e+01    8.994334e+03
  4.351734e+01    8.314381e+03
  4.354022e+01    7.938827e+03
  4.356311e+01    7.769916e+03
  4.358600e+01    7.695468e+03
  4.360888e+01    7.659313e+03
  4.363177e+01    7.682676e+03
  4.365465e+01    7.722444e+03
  4.367754e+01    7.785238e+03
  4.370042e+01    7.886648e+03
  4.372331e+01    8.043871e+03
  4.374619e+01    8.278858e+03
  4.376908e+01    8.642161e+03
  4.379196e+01    9.218697e+03
  4.381485e+01    1.019842e+04
  4.383773e+01    1.178922e+04
  4.386062e+01    1.418047e+04
  4.388351e+01    1.726004e+04
  4.390639e+01    2.031969e+04
  4.392928e+01    2.243900e+04
  4.395216e+01    2.296652e+04
  4.397505e+01    2.168798e+04
  4.399793e+01    1.904375e+04
  4.402082e+01    1.609702e+04
  4.404370e+01    1.364547e+04
  4.406659e+01    1.181597e+04
  4.408947e+01    1.054317e+04
  4.411236e+01    9.698550e+03
  4.413524e+01    9.113966e+03
  4.415813e+01    8.721067e+03
  4.418102e+01    8.484274e+03
  4.420390e+01    8.360246e+03
  4.422679e+01    8.305310e+03
  4.424967e+01    8.336718e+03
  4.427256e+01    8.476891e+03
  4.429544e+01    8.740726e+03
  4.431833e+01    9.201788e+03
  4.434121e+01    1.006725e+04
  4.436410e+01    1.175867e+04
  4.438698e+01    1.492573e+04
  4.440987e+01    2.017053e+04
  4.443275e+01    2.670821e+04
  4.445564e+01    3.162881e+04
  4.447853e+01    3.247051e+04
  4.450141e+01    2.932455e+04
  4.452430e+01    2.378618e+04
  4.454718e+01    1.791834e+04
  4.457007e+01    1.350436e+04
  4.459295e+01    1.089229e+04
  4.461584e+01    9.460438e+03
  4.463872e+01    8.681320e+03
  4.466161e+01    8.222651e+03
  4.468449e+01    7.932728e+03
  4.470738e+01    7.733680e+03
  4.473026e+01    7.601828e+03
  4.475315e+01    7.514090e+03
  4.477603e+01    7.434078e+03
  4.479892e+01    7.365905e+03
  4.482181e+01    7.323925e+03
  4.484469e+01    7.283619e+03
  4.486758e+01    7.256417e+03
  4.489046e+01    7.222396e+03
  4.491335e+01    7.190851e+03
  4.493623e+01    7.187975e+03
  4.495912e+01    7.169061e+03
  4.498200e+01    7.158892e+03
  4.500489e+01    7.138662e+03
  4.502777e+01    7.124941e+03
  4.505066e+01    7.128164e+03
  4.507354e+01    7.125955e+03
  4.509643e+01    7.122339e+03
  4.511932e+01    7.120578e+03
  4.514220e+01    7.123841e+03
  4.516509e+01    7.121143e+03
  4.518797e+01    7.133876e+03
  4.521086e+01    7.142896e+03
  4.523374e+01    7.154311e+03
  4.525663e+01    7.171044e+03
  4.527951e+01    7.196073e+03
  4.530240e+01    7.235876e+03
  4.532528e+01    7.288928e+03
  4.534817e+01    7.389020e+03
  4.537105e+01    7.546845e+03
  4.539394e+01    7.823763e+03
  4.541683e+01    8.354543e+03
  4.543971e+01    9.331321e+03
  4.546260e+01    1.088927e+04
  4.548548e+01    1.273979e+04
  4.550837e+01    1.403576e+04
  4.553125e+01    1.413056e+04
  4.555414e+01    1.314149e+04
  4.557702e+01    1.152757e+04
  4.559991e+01    9.898820e+03
  4.562279e+01    8.703056e+03
  4.564568e+01    8.027145e+03
  4.566856e+01    7.653222e+03
  4.569145e+01    7.445780e+03
  4.571433e+01    7.320448e+03
  4.573722e+01    7.237895e+03
  4.576011e+01    7.194999e+03
  4.578299e+01    7.172749e+03
  4.580588e+01    7.154915e+03
  4.582876e+01    7.133793e+03
  4.585165e+01    7.129998e+03
  4.587453e+01    7.134611e+03
  4.589742e+01    7.134204e+03
  4.592030e+01    7.127067e+03
  4.594319e+01    7.141704e+03
  4.596607e+01    7.151776e+03
  4.598896e+01    7.146672e+03
  4.601184e+01    7.154485e+03
  4.603473e+01    7.150076e+03
  4.605762e+01    7.164568e+03
  4.608050e+01    7.152400e+03
  4.610339e+01    7.143507e+03
  4.612627e+01    7.142794e+03
  4.614916e+01    7.118575e+03
  4.617204e+01    7.101976e+03
  4.619493e+01    7.078462e+03
  4.621781e+01    7.056504e+03
  4.624070e+01    7.036640e+03
  4.626358e+01    7.039550e+03
  4.628647e+01    7.017364e+03
  4.630935e+01    7.009731e+03
  4.633224e+01    7.018757e+03
  4.635513e+01    7.016570e+03
  4.637801e+01    7.045664e+03
  4.640090e+01    7.093854e+03
  4.642378e+01    7.190225e+03
  4.644667e+01    7.360512e+03
  4.646955e+01    7.657794e+03
  4.649244e+01    8.164896e+03
  4.651532e+01    8.739459e+03
  4.653821e+01    9.140534e+03
  4.656109e+01    9.178007e+03
  4.658398e+01    8.898739e+03
  4.660686e+01    8.411615e+03
  4.662975e+01    7.926377e+03
  4.665263e+01    7.589674e+03
  4.667552e+01    7.389990e+03
  4.669841e+01    7.288511e+03
  4.672129e+01    7.238152e+03
  4.674418e+01    7.212748e+03
  4.676706e+01    7.185212e+03
  4.678995e+01    7.190890e+03
  4.681283e+01    7.189034e+03
  4.683572e+01    7.190335e+03
  4.685860e+01    7.174005e+03
  4.688149e+01    7.169224e+03
  4.690437e+01    7.163086e+03
  4.692726e+01    7.159824e+03
  4.695014e+01    7.147247e+03
  4.697303e+01    7.139065e+03
  4.699592e+01    7.141957e+03
  4.701880e+01    7.135539e+03
  4.704169e+01    7.154920e+03
  4.706457e+01    7.161526e+03
  4.708746e+01    7.155069e+03
  4.711034e+01    7.169230e+03
  4.713323e+01    7.188909e+03
  4.715611e+01    7.170187e+03
  4.717900e+01    7.177676e+03
  4.720188e+01    7.196008e+03
  4.722477e+01    7.211313e+03
  4.724765e+01    7.238298e+03
  4.727054e+01    7.248487e+03
  4.729343e+01    7.273651e+03
  4.731631e+01    7.302094e+03
  4.733920e+01    7.323174e+03
  4.736208e+01    7.365937e+03
  4.738497e+01    7.423507e+03
  4.740785e+01    7.502014e+03
  4.743074e+01    7.608897e+03
  4.745362e+01    7.735381e+03
  4.747651e+01    8.007596e+03
  4.749939e+01    8.405962e+03
  4.752228e+01    8.853301e+03
  4.754516e+01    9.200840e+03
  4.756805e+01    9.208938e+03
  4.759094e+01    9.143918e+03
  4.761382e+01    8.920630e+03
  4.763671e+01    8.598913e+03
  4.765959e+01    8.343193e+03
  4.768248e+01    8.204184e+03
  4.770536e+01    8.087397e+03
  4.772825e+01    7.923482e+03
  4.775113e+01    7.960063e+03
  4.777402e+01    7.779014e+03
  4.779690e+01    7.761818e+03
  4.781979e+01    7.492054e+03
  4.784267e+01    7.220832e+03
  4.786556e+01    6.198666e+03
  4.788844e+01    3.011566e+03