File: Output/ROCK_XRD/WAM39B_integrated/rampe3/wam39b_rampe_3_xrd_000005_integrated.dat
# == pyFAI calibration ==
# Distance Sample to Detector: 0.261615 m
# PONI: 2.023e-01, 2.348e-01 m
# Rotations: -0.026380 0.002005 0.000000 rad
#
# == Fit2d calibration ==
# Distance Sample-beamCenter: 261.707 mm
# Center: x=6119.331, y=5134.776 pix
# Tilt: 1.516 deg  TiltPlanRot: 4.347 deg
#
# Detector Rayonix SX165	 PixelSize= 3.950e-05, 3.950e-05 m
#    Detector has a mask: True
#    Detector has a dark current: False
#    detector has a flat field: False
#
# Wavelength: 1.12713e-10 m
# Mask applied: from detector
# Dark current applied: False
# Flat field applied: False
# Polarization factor: None
# Normalization factor: 1.0
# --> ROCK\\WAM39B_integrated\wam39b_rampe_3_xrd_000005_integrated.dat
#       2th_deg             I
  2.502596e+01    4.640676e+03
  2.504885e+01    1.216921e+04
  2.507173e+01    1.636755e+04
  2.509462e+01    1.738749e+04
  2.511750e+01    1.901864e+04
  2.514039e+01    1.969566e+04
  2.516327e+01    1.959317e+04
  2.518616e+01    1.941020e+04
  2.520905e+01    1.929331e+04
  2.523193e+01    1.908119e+04
  2.525482e+01    1.914139e+04
  2.527770e+01    1.948467e+04
  2.530059e+01    1.939534e+04
  2.532347e+01    1.919598e+04
  2.534636e+01    1.901929e+04
  2.536924e+01    1.891362e+04
  2.539213e+01    1.887615e+04
  2.541501e+01    1.885146e+04
  2.543790e+01    1.884380e+04
  2.546078e+01    1.887023e+04
  2.548367e+01    1.882050e+04
  2.550656e+01    1.865997e+04
  2.552944e+01    1.857859e+04
  2.555233e+01    1.883782e+04
  2.557521e+01    1.901174e+04
  2.559810e+01    1.904330e+04
  2.562098e+01    1.915840e+04
  2.564387e+01    1.932414e+04
  2.566675e+01    1.948835e+04
  2.568964e+01    1.955326e+04
  2.571252e+01    1.960839e+04
  2.573541e+01    1.971349e+04
  2.575829e+01    1.975083e+04
  2.578118e+01    1.970229e+04
  2.580407e+01    1.968968e+04
  2.582695e+01    1.966883e+04
  2.584984e+01    1.959833e+04
  2.587272e+01    1.949937e+04
  2.589561e+01    1.944271e+04
  2.591849e+01    1.931353e+04
  2.594138e+01    1.922000e+04
  2.596426e+01    1.918735e+04
  2.598715e+01    1.904982e+04
  2.601003e+01    1.899272e+04
  2.603292e+01    1.886585e+04
  2.605580e+01    1.872920e+04
  2.607869e+01    1.865593e+04
  2.610157e+01    1.858326e+04
  2.612446e+01    1.852154e+04
  2.614735e+01    1.851112e+04
  2.617023e+01    1.853739e+04
  2.619312e+01    1.864189e+04
  2.621600e+01    1.884627e+04
  2.623889e+01    1.906243e+04
  2.626177e+01    1.944968e+04
  2.628466e+01    2.002272e+04
  2.630754e+01    2.090767e+04
  2.633043e+01    2.229753e+04
  2.635331e+01    2.443296e+04
  2.637620e+01    2.743410e+04
  2.639908e+01    3.078930e+04
  2.642197e+01    3.353175e+04
  2.644486e+01    3.495740e+04
  2.646774e+01    3.561058e+04
  2.649063e+01    3.669459e+04
  2.651351e+01    3.973216e+04
  2.653640e+01    4.367463e+04
  2.655928e+01    4.543089e+04
  2.658217e+01    4.338256e+04
  2.660505e+01    3.843863e+04
  2.662794e+01    3.288400e+04
  2.665082e+01    2.804782e+04
  2.667371e+01    2.450118e+04
  2.669659e+01    2.206072e+04
  2.671948e+01    2.041092e+04
  2.674237e+01    1.930810e+04
  2.676525e+01    1.854736e+04
  2.678814e+01    1.800398e+04
  2.681102e+01    1.761019e+04
  2.683391e+01    1.729323e+04
  2.685679e+01    1.706604e+04
  2.687968e+01    1.690888e+04
  2.690256e+01    1.673052e+04
  2.692545e+01    1.661319e+04
  2.694833e+01    1.648791e+04
  2.697122e+01    1.637812e+04
  2.699410e+01    1.628866e+04
  2.701699e+01    1.625160e+04
  2.703988e+01    1.615572e+04
  2.706276e+01    1.608647e+04
  2.708565e+01    1.604713e+04
  2.710853e+01    1.599474e+04
  2.713142e+01    1.593371e+04
  2.715430e+01    1.587118e+04
  2.717719e+01    1.581079e+04
  2.720007e+01    1.574105e+04
  2.722296e+01    1.569062e+04
  2.724584e+01    1.562743e+04
  2.726873e+01    1.560872e+04
  2.729161e+01    1.556766e+04
  2.731450e+01    1.552637e+04
  2.733738e+01    1.546998e+04
  2.736027e+01    1.541834e+04
  2.738316e+01    1.538287e+04
  2.740604e+01    1.534816e+04
  2.742893e+01    1.532476e+04
  2.745181e+01    1.531144e+04
  2.747470e+01    1.527716e+04
  2.749758e+01    1.524252e+04
  2.752047e+01    1.521561e+04
  2.754335e+01    1.520343e+04
  2.756624e+01    1.519726e+04
  2.758912e+01    1.518480e+04
  2.761201e+01    1.516168e+04
  2.763489e+01    1.514865e+04
  2.765778e+01    1.516390e+04
  2.768067e+01    1.518171e+04
  2.770355e+01    1.520806e+04
  2.772644e+01    1.520242e+04
  2.774932e+01    1.520892e+04
  2.777221e+01    1.525611e+04
  2.779509e+01    1.530929e+04
  2.781798e+01    1.538322e+04
  2.784086e+01    1.545754e+04
  2.786375e+01    1.556991e+04
  2.788663e+01    1.571074e+04
  2.790952e+01    1.590423e+04
  2.793240e+01    1.619654e+04
  2.795529e+01    1.662305e+04
  2.797818e+01    1.728628e+04
  2.800106e+01    1.826972e+04
  2.802395e+01    1.950125e+04
  2.804683e+01    2.060428e+04
  2.806972e+01    2.101893e+04
  2.809260e+01    2.047559e+04
  2.811549e+01    1.926021e+04
  2.813837e+01    1.794217e+04
  2.816126e+01    1.688930e+04
  2.818414e+01    1.614660e+04
  2.820703e+01    1.563342e+04
  2.822991e+01    1.526586e+04
  2.825280e+01    1.499355e+04
  2.827568e+01    1.478534e+04
  2.829857e+01    1.460929e+04
  2.832146e+01    1.445945e+04
  2.834434e+01    1.431106e+04
  2.836723e+01    1.418120e+04
  2.839011e+01    1.407159e+04
  2.841300e+01    1.396112e+04
  2.843588e+01    1.387860e+04
  2.845877e+01    1.379111e+04
  2.848165e+01    1.371645e+04
  2.850454e+01    1.366095e+04
  2.852742e+01    1.360126e+04
  2.855031e+01    1.354080e+04
  2.857319e+01    1.346209e+04
  2.859608e+01    1.340734e+04
  2.861897e+01    1.336401e+04
  2.864185e+01    1.329721e+04
  2.866474e+01    1.324700e+04
  2.868762e+01    1.318190e+04
  2.871051e+01    1.313305e+04
  2.873339e+01    1.309593e+04
  2.875628e+01    1.305196e+04
  2.877916e+01    1.300935e+04
  2.880205e+01    1.296189e+04
  2.882493e+01    1.293783e+04
  2.884782e+01    1.291522e+04
  2.887070e+01    1.288366e+04
  2.889359e+01    1.286113e+04
  2.891648e+01    1.284689e+04
  2.893936e+01    1.282808e+04
  2.896225e+01    1.281269e+04
  2.898513e+01    1.280000e+04
  2.900802e+01    1.279479e+04
  2.903090e+01    1.277659e+04
  2.905379e+01    1.274638e+04
  2.907667e+01    1.271639e+04
  2.909956e+01    1.265709e+04
  2.912244e+01    1.258446e+04
  2.914533e+01    1.251929e+04
  2.916821e+01    1.245067e+04
  2.919110e+01    1.237226e+04
  2.921398e+01    1.229958e+04
  2.923687e+01    1.223900e+04
  2.925976e+01    1.217562e+04
  2.928264e+01    1.211843e+04
  2.930553e+01    1.207521e+04
  2.932841e+01    1.201848e+04
  2.935130e+01    1.195790e+04
  2.937418e+01    1.190710e+04
  2.939707e+01    1.188336e+04
  2.941995e+01    1.184869e+04
  2.944284e+01    1.182178e+04
  2.946572e+01    1.184359e+04
  2.948861e+01    1.187300e+04
  2.951149e+01    1.195349e+04
  2.953438e+01    1.215015e+04
  2.955727e+01    1.247820e+04
  2.958015e+01    1.291409e+04
  2.960304e+01    1.330825e+04
  2.962592e+01    1.340746e+04
  2.964881e+01    1.314529e+04
  2.967169e+01    1.265642e+04
  2.969458e+01    1.216112e+04
  2.971746e+01    1.177067e+04
  2.974035e+01    1.150856e+04
  2.976323e+01    1.134546e+04
  2.978612e+01    1.124217e+04
  2.980900e+01    1.117380e+04
  2.983189e+01    1.112450e+04
  2.985478e+01    1.107746e+04
  2.987766e+01    1.102676e+04
  2.990055e+01    1.099134e+04
  2.992343e+01    1.096479e+04
  2.994632e+01    1.093624e+04
  2.996920e+01    1.091609e+04
  2.999209e+01    1.090577e+04
  3.001497e+01    1.089010e+04
  3.003786e+01    1.087064e+04
  3.006074e+01    1.085506e+04
  3.008363e+01    1.084452e+04
  3.010651e+01    1.083712e+04
  3.012940e+01    1.083782e+04
  3.015228e+01    1.082123e+04
  3.017517e+01    1.081939e+04
  3.019806e+01    1.083163e+04
  3.022094e+01    1.082055e+04
  3.024383e+01    1.080626e+04
  3.026671e+01    1.080374e+04
  3.028960e+01    1.080164e+04
  3.031248e+01    1.080906e+04
  3.033537e+01    1.083840e+04
  3.035825e+01    1.086570e+04
  3.038114e+01    1.090010e+04
  3.040402e+01    1.094767e+04
  3.042691e+01    1.101309e+04
  3.044979e+01    1.108920e+04
  3.047268e+01    1.120281e+04
  3.049557e+01    1.135747e+04
  3.051845e+01    1.155196e+04
  3.054134e+01    1.183847e+04
  3.056422e+01    1.227549e+04
  3.058711e+01    1.293828e+04
  3.060999e+01    1.398014e+04
  3.063288e+01    1.563839e+04
  3.065576e+01    1.827021e+04
  3.067865e+01    2.233815e+04
  3.070153e+01    2.830072e+04
  3.072442e+01    3.553041e+04
  3.074730e+01    4.227517e+04
  3.077019e+01    4.570794e+04
  3.079308e+01    4.478423e+04
  3.081596e+01    3.985700e+04
  3.083885e+01    3.317930e+04
  3.086173e+01    2.703467e+04
  3.088462e+01    2.232446e+04
  3.090750e+01    1.898813e+04
  3.093039e+01    1.683411e+04
  3.095327e+01    1.562868e+04
  3.097616e+01    1.527822e+04
  3.099904e+01    1.587967e+04
  3.102193e+01    1.775635e+04
  3.104481e+01    2.113695e+04
  3.106770e+01    2.542422e+04
  3.109059e+01    2.873979e+04
  3.111347e+01    2.915614e+04
  3.113636e+01    2.638271e+04
  3.115924e+01    2.193669e+04
  3.118213e+01    1.772834e+04
  3.120501e+01    1.471586e+04
  3.122790e+01    1.287773e+04
  3.125078e+01    1.182377e+04
  3.127367e+01    1.119894e+04
  3.129655e+01    1.081897e+04
  3.131944e+01    1.056736e+04
  3.134232e+01    1.038882e+04
  3.136521e+01    1.026102e+04
  3.138809e+01    1.015628e+04
  3.141098e+01    1.007989e+04
  3.143387e+01    1.001196e+04
  3.145675e+01    9.958104e+03
  3.147964e+01    9.909880e+03
  3.150252e+01    9.863997e+03
  3.152541e+01    9.826219e+03
  3.154829e+01    9.781680e+03
  3.157118e+01    9.749536e+03
  3.159406e+01    9.720682e+03
  3.161695e+01    9.694523e+03
  3.163983e+01    9.662983e+03
  3.166272e+01    9.642213e+03
  3.168560e+01    9.618940e+03
  3.170849e+01    9.597854e+03
  3.173138e+01    9.572819e+03
  3.175426e+01    9.546178e+03
  3.177715e+01    9.528766e+03
  3.180003e+01    9.516302e+03
  3.182292e+01    9.493856e+03
  3.184580e+01    9.480214e+03
  3.186869e+01    9.469587e+03
  3.189157e+01    9.456854e+03
  3.191446e+01    9.447521e+03
  3.193734e+01    9.445915e+03
  3.196023e+01    9.434607e+03
  3.198311e+01    9.418316e+03
  3.200600e+01    9.412136e+03
  3.202889e+01    9.410655e+03
  3.205177e+01    9.407328e+03
  3.207466e+01    9.401799e+03
  3.209754e+01    9.390337e+03
  3.212043e+01    9.394555e+03
  3.214331e+01    9.398092e+03
  3.216620e+01    9.395048e+03
  3.218908e+01    9.380740e+03
  3.221197e+01    9.363190e+03
  3.223485e+01    9.350683e+03
  3.225774e+01    9.341511e+03
  3.228062e+01    9.326993e+03
  3.230351e+01    9.303972e+03
  3.232639e+01    9.286461e+03
  3.234928e+01    9.277001e+03
  3.237217e+01    9.285968e+03
  3.239505e+01    9.327566e+03
  3.241794e+01    9.431147e+03
  3.244082e+01    9.628140e+03
  3.246371e+01    9.965396e+03
  3.248659e+01    1.039953e+04
  3.250948e+01    1.075587e+04
  3.253236e+01    1.083712e+04
  3.255525e+01    1.059041e+04
  3.257813e+01    1.016738e+04
  3.260102e+01    9.754497e+03
  3.262390e+01    9.456665e+03
  3.264679e+01    9.272641e+03
  3.266968e+01    9.166088e+03
  3.269256e+01    9.109599e+03
  3.271545e+01    9.081366e+03
  3.273833e+01    9.061930e+03
  3.276122e+01    9.045230e+03
  3.278410e+01    9.036362e+03
  3.280699e+01    9.034515e+03
  3.282987e+01    9.026927e+03
  3.285276e+01    9.016395e+03
  3.287564e+01    8.989854e+03
  3.289853e+01    8.967413e+03
  3.292141e+01    8.932459e+03
  3.294430e+01    8.893837e+03
  3.296719e+01    8.856520e+03
  3.299007e+01    8.814354e+03
  3.301296e+01    8.779479e+03
  3.303584e+01    8.749152e+03
  3.305873e+01    8.720137e+03
  3.308161e+01    8.694936e+03
  3.310450e+01    8.677198e+03
  3.312738e+01    8.656603e+03
  3.315027e+01    8.641393e+03
  3.317315e+01    8.622210e+03
  3.319604e+01    8.606065e+03
  3.321892e+01    8.594366e+03
  3.324181e+01    8.589650e+03
  3.326469e+01    8.575915e+03
  3.328758e+01    8.566292e+03
  3.331047e+01    8.560291e+03
  3.333335e+01    8.553209e+03
  3.335624e+01    8.547897e+03
  3.337912e+01    8.538152e+03
  3.340201e+01    8.530698e+03
  3.342489e+01    8.526964e+03
  3.344778e+01    8.520352e+03
  3.347066e+01    8.518732e+03
  3.349355e+01    8.517117e+03
  3.351643e+01    8.515206e+03
  3.353932e+01    8.514956e+03
  3.356220e+01    8.518916e+03
  3.358509e+01    8.534601e+03
  3.360798e+01    8.554655e+03
  3.363086e+01    8.582831e+03
  3.365375e+01    8.629260e+03
  3.367663e+01    8.695614e+03
  3.369952e+01    8.802567e+03
  3.372240e+01    8.984873e+03
  3.374529e+01    9.295107e+03
  3.376817e+01    9.871710e+03
  3.379106e+01    1.095916e+04
  3.381394e+01    1.290618e+04
  3.383683e+01    1.590302e+04
  3.385971e+01    1.938468e+04
  3.388260e+01    2.182762e+04
  3.390549e+01    2.186784e+04
  3.392837e+01    1.959028e+04
  3.395126e+01    1.626568e+04
  3.397414e+01    1.327175e+04
  3.399703e+01    1.118628e+04
  3.401991e+01    9.957591e+03
  3.404280e+01    9.273505e+03
  3.406568e+01    8.880908e+03
  3.408857e+01    8.649612e+03
  3.411145e+01    8.501078e+03
  3.413434e+01    8.392710e+03
  3.415722e+01    8.320481e+03
  3.418011e+01    8.266269e+03
  3.420300e+01    8.214406e+03
  3.422588e+01    8.180680e+03
  3.424877e+01    8.150631e+03
  3.427165e+01    8.123771e+03
  3.429454e+01    8.097776e+03
  3.431742e+01    8.080416e+03
  3.434031e+01    8.064564e+03
  3.436319e+01    8.051991e+03
  3.438608e+01    8.033495e+03
  3.440896e+01    8.029459e+03
  3.443185e+01    8.018483e+03
  3.445473e+01    8.001458e+03
  3.447762e+01    7.988800e+03
  3.450050e+01    7.987551e+03
  3.452339e+01    7.985278e+03
  3.454628e+01    7.971542e+03
  3.456916e+01    7.960414e+03
  3.459205e+01    7.954109e+03
  3.461493e+01    7.948845e+03
  3.463782e+01    7.945581e+03
  3.466070e+01    7.936847e+03
  3.468359e+01    7.928970e+03
  3.470647e+01    7.931267e+03
  3.472936e+01    7.930240e+03
  3.475224e+01    7.932283e+03
  3.477513e+01    7.935166e+03
  3.479801e+01    7.937354e+03
  3.482090e+01    7.949424e+03
  3.484379e+01    7.948526e+03
  3.486667e+01    7.951926e+03
  3.488956e+01    7.956456e+03
  3.491244e+01    7.962654e+03
  3.493533e+01    7.971180e+03
  3.495821e+01    7.966978e+03
  3.498110e+01    7.971765e+03
  3.500398e+01    7.967379e+03
  3.502687e+01    7.951796e+03
  3.504975e+01    7.938693e+03
  3.507264e+01    7.919860e+03
  3.509552e+01    7.891577e+03
  3.511841e+01    7.868808e+03
  3.514130e+01    7.835435e+03
  3.516418e+01    7.800572e+03
  3.518707e+01    7.763752e+03
  3.520995e+01    7.739722e+03
  3.523284e+01    7.715373e+03
  3.525572e+01    7.695245e+03
  3.527861e+01    7.664341e+03
  3.530149e+01    7.637654e+03
  3.532438e+01    7.612160e+03
  3.534726e+01    7.585086e+03
  3.537015e+01    7.559940e+03
  3.539303e+01    7.532938e+03
  3.541592e+01    7.515900e+03
  3.543880e+01    7.498311e+03
  3.546169e+01    7.482655e+03
  3.548458e+01    7.469343e+03
  3.550746e+01    7.455325e+03
  3.553035e+01    7.442762e+03
  3.555323e+01    7.428966e+03
  3.557612e+01    7.410886e+03
  3.559900e+01    7.403050e+03
  3.562189e+01    7.395814e+03
  3.564477e+01    7.385826e+03
  3.566766e+01    7.383042e+03
  3.569054e+01    7.374017e+03
  3.571343e+01    7.369077e+03
  3.573631e+01    7.366230e+03
  3.575920e+01    7.360375e+03
  3.578209e+01    7.353584e+03
  3.580497e+01    7.353788e+03
  3.582786e+01    7.348486e+03
  3.585074e+01    7.343961e+03
  3.587363e+01    7.343641e+03
  3.589651e+01    7.336591e+03
  3.591940e+01    7.336503e+03
  3.594228e+01    7.329723e+03
  3.596517e+01    7.331917e+03
  3.598805e+01    7.340130e+03
  3.601094e+01    7.348557e+03
  3.603382e+01    7.348975e+03
  3.605671e+01    7.351297e+03
  3.607960e+01    7.354111e+03
  3.610248e+01    7.359446e+03
  3.612537e+01    7.361849e+03
  3.614825e+01    7.375210e+03
  3.617114e+01    7.390949e+03
  3.619402e+01    7.404587e+03
  3.621691e+01    7.421686e+03
  3.623979e+01    7.431394e+03
  3.626268e+01    7.460103e+03
  3.628556e+01    7.509255e+03
  3.630845e+01    7.577882e+03
  3.633133e+01    7.670663e+03
  3.635422e+01    7.844139e+03
  3.637710e+01    8.166076e+03
  3.639999e+01    8.766390e+03
  3.642288e+01    9.778580e+03
  3.644576e+01    1.114746e+04
  3.646865e+01    1.241736e+04
  3.649153e+01    1.290806e+04
  3.651442e+01    1.238386e+04
  3.653730e+01    1.122451e+04
  3.656019e+01    9.937638e+03
  3.658307e+01    8.917771e+03
  3.660596e+01    8.281286e+03
  3.662884e+01    7.930613e+03
  3.665173e+01    7.736543e+03
  3.667461e+01    7.631114e+03
  3.669750e+01    7.573407e+03
  3.672039e+01    7.537190e+03
  3.674327e+01    7.509793e+03
  3.676616e+01    7.492413e+03
  3.678904e+01    7.484466e+03
  3.681193e+01    7.485487e+03
  3.683481e+01    7.481529e+03
  3.685770e+01    7.473285e+03
  3.688058e+01    7.484566e+03
  3.690347e+01    7.492295e+03
  3.692635e+01    7.497536e+03
  3.694924e+01    7.493022e+03
  3.697212e+01    7.496516e+03
  3.699501e+01    7.511507e+03
  3.701790e+01    7.520455e+03
  3.704078e+01    7.526402e+03
  3.706367e+01    7.532259e+03
  3.708655e+01    7.549420e+03
  3.710944e+01    7.568183e+03
  3.713232e+01    7.575012e+03
  3.715521e+01    7.598322e+03
  3.717809e+01    7.623652e+03
  3.720098e+01    7.647158e+03
  3.722386e+01    7.678640e+03
  3.724675e+01    7.700686e+03
  3.726963e+01    7.730047e+03
  3.729252e+01    7.768918e+03
  3.731541e+01    7.807362e+03
  3.733829e+01    7.856211e+03
  3.736118e+01    7.924105e+03
  3.738406e+01    8.009798e+03
  3.740695e+01    8.113238e+03
  3.742983e+01    8.236839e+03
  3.745272e+01    8.390779e+03
  3.747560e+01    8.610149e+03
  3.749849e+01    8.916452e+03
  3.752137e+01    9.349716e+03
  3.754426e+01    9.989954e+03
  3.756714e+01    1.102981e+04
  3.759003e+01    1.286250e+04
  3.761291e+01    1.627639e+04
  3.763580e+01    2.277441e+04
  3.765869e+01    3.415115e+04
  3.768157e+01    5.027375e+04
  3.770446e+01    6.595674e+04
  3.772734e+01    7.319703e+04
  3.775023e+01    6.864329e+04
  3.777311e+01    5.553479e+04
  3.779600e+01    4.002083e+04
  3.781888e+01    2.722472e+04
  3.784177e+01    1.900173e+04
  3.786465e+01    1.441013e+04
  3.788754e+01    1.194817e+04
  3.791042e+01    1.058369e+04
  3.793331e+01    9.761854e+03
  3.795620e+01    9.231805e+03
  3.797908e+01    8.852217e+03
  3.800197e+01    8.589109e+03
  3.802485e+01    8.395079e+03
  3.804774e+01    8.245927e+03
  3.807062e+01    8.147178e+03
  3.809351e+01    8.057936e+03
  3.811639e+01    7.982472e+03
  3.813928e+01    7.921060e+03
  3.816216e+01    7.867242e+03
  3.818505e+01    7.823207e+03
  3.820793e+01    7.781055e+03
  3.823082e+01    7.746762e+03
  3.825371e+01    7.717884e+03
  3.827659e+01    7.702948e+03
  3.829948e+01    7.694850e+03
  3.832236e+01    7.676231e+03
  3.834525e+01    7.658331e+03
  3.836813e+01    7.649152e+03
  3.839102e+01    7.640929e+03
  3.841390e+01    7.632359e+03
  3.843679e+01    7.618950e+03
  3.845967e+01    7.622994e+03
  3.848256e+01    7.623447e+03
  3.850544e+01    7.629450e+03
  3.852833e+01    7.626993e+03
  3.855121e+01    7.622411e+03
  3.857410e+01    7.619536e+03
  3.859699e+01    7.616069e+03
  3.861987e+01    7.614839e+03
  3.864276e+01    7.614542e+03
  3.866564e+01    7.619236e+03
  3.868853e+01    7.626565e+03
  3.871141e+01    7.635821e+03
  3.873430e+01    7.647909e+03
  3.875718e+01    7.674866e+03
  3.878007e+01    7.721790e+03
  3.880295e+01    7.791851e+03
  3.882584e+01    7.954122e+03
  3.884872e+01    8.261500e+03
  3.887161e+01    8.772932e+03
  3.889450e+01    9.429945e+03
  3.891738e+01    9.956132e+03
  3.894027e+01    1.007708e+04
  3.896315e+01    9.754361e+03
  3.898604e+01    9.182257e+03
  3.900892e+01    8.594871e+03
  3.903181e+01    8.146211e+03
  3.905469e+01    7.869383e+03
  3.907758e+01    7.715165e+03
  3.910046e+01    7.626997e+03
  3.912335e+01    7.576677e+03
  3.914623e+01    7.542958e+03
  3.916912e+01    7.523776e+03
  3.919201e+01    7.513643e+03
  3.921489e+01    7.486120e+03
  3.923778e+01    7.473450e+03
  3.926066e+01    7.458250e+03
  3.928355e+01    7.442735e+03
  3.930643e+01    7.435220e+03
  3.932932e+01    7.424511e+03
  3.935220e+01    7.421881e+03
  3.937509e+01    7.421608e+03
  3.939797e+01    7.419917e+03
  3.942086e+01    7.419017e+03
  3.944374e+01    7.408410e+03
  3.946663e+01    7.413754e+03
  3.948951e+01    7.413593e+03
  3.951240e+01    7.416820e+03
  3.953529e+01    7.409678e+03
  3.955817e+01    7.411368e+03
  3.958106e+01    7.409331e+03
  3.960394e+01    7.400838e+03
  3.962683e+01    7.389189e+03
  3.964971e+01    7.381531e+03
  3.967260e+01    7.377508e+03
  3.969548e+01    7.371012e+03
  3.971837e+01    7.366817e+03
  3.974125e+01    7.350139e+03
  3.976414e+01    7.333848e+03
  3.978702e+01    7.325500e+03
  3.980991e+01    7.307883e+03
  3.983280e+01    7.297574e+03
  3.985568e+01    7.289508e+03
  3.987857e+01    7.290955e+03
  3.990145e+01    7.296945e+03
  3.992434e+01    7.281212e+03
  3.994722e+01    7.282446e+03
  3.997011e+01    7.289798e+03
  3.999299e+01    7.317798e+03
  4.001588e+01    7.383503e+03
  4.003876e+01    7.499910e+03
  4.006165e+01    7.668057e+03
  4.008453e+01    7.820821e+03
  4.010742e+01    7.877005e+03
  4.013031e+01    7.807479e+03
  4.015319e+01    7.662702e+03
  4.017608e+01    7.501794e+03
  4.019896e+01    7.369991e+03
  4.022185e+01    7.285525e+03
  4.024473e+01    7.240244e+03
  4.026762e+01    7.212798e+03
  4.029050e+01    7.192556e+03
  4.031339e+01    7.168052e+03
  4.033627e+01    7.150260e+03
  4.035916e+01    7.147931e+03
  4.038204e+01    7.147629e+03
  4.040493e+01    7.138667e+03
  4.042782e+01    7.134113e+03
  4.045070e+01    7.131606e+03
  4.047359e+01    7.129348e+03
  4.049647e+01    7.120669e+03
  4.051936e+01    7.117480e+03
  4.054224e+01    7.112237e+03
  4.056513e+01    7.110790e+03
  4.058801e+01    7.107863e+03
  4.061090e+01    7.100214e+03
  4.063378e+01    7.100658e+03
  4.065667e+01    7.098173e+03
  4.067955e+01    7.092884e+03
  4.070244e+01    7.091890e+03
  4.072532e+01    7.093462e+03
  4.074821e+01    7.092874e+03
  4.077110e+01    7.093907e+03
  4.079398e+01    7.097952e+03
  4.081687e+01    7.102004e+03
  4.083975e+01    7.108384e+03
  4.086264e+01    7.113961e+03
  4.088552e+01    7.126556e+03
  4.090841e+01    7.129187e+03
  4.093129e+01    7.136247e+03
  4.095418e+01    7.152262e+03
  4.097706e+01    7.159095e+03
  4.099995e+01    7.180116e+03
  4.102283e+01    7.213050e+03
  4.104572e+01    7.248698e+03
  4.106861e+01    7.317016e+03
  4.109149e+01    7.438284e+03
  4.111438e+01    7.648159e+03
  4.113726e+01    8.033653e+03
  4.116015e+01    8.765718e+03
  4.118303e+01    1.004280e+04
  4.120592e+01    1.182883e+04
  4.122880e+01    1.351570e+04
  4.125169e+01    1.421687e+04
  4.127457e+01    1.367350e+04
  4.129746e+01    1.227875e+04
  4.132034e+01    1.060858e+04
  4.134323e+01    9.227203e+03
  4.136612e+01    8.357635e+03
  4.138900e+01    7.876275e+03
  4.141189e+01    7.620990e+03
  4.143477e+01    7.484702e+03
  4.145766e+01    7.404979e+03
  4.148054e+01    7.348172e+03
  4.150343e+01    7.311052e+03
  4.152631e+01    7.283950e+03
  4.154920e+01    7.264594e+03
  4.157208e+01    7.246857e+03
  4.159497e+01    7.232544e+03
  4.161785e+01    7.220609e+03
  4.164074e+01    7.208008e+03
  4.166362e+01    7.186473e+03
  4.168651e+01    7.172450e+03
  4.170940e+01    7.160962e+03
  4.173228e+01    7.143278e+03
  4.175517e+01    7.130845e+03
  4.177805e+01    7.122289e+03
  4.180094e+01    7.116527e+03
  4.182382e+01    7.107703e+03
  4.184671e+01    7.094982e+03
  4.186959e+01    7.093084e+03
  4.189248e+01    7.095014e+03
  4.191536e+01    7.090157e+03
  4.193825e+01    7.096997e+03
  4.196113e+01    7.113288e+03
  4.198402e+01    7.125696e+03
  4.200691e+01    7.139245e+03
  4.202979e+01    7.151338e+03
  4.205268e+01    7.172273e+03
  4.207556e+01    7.196791e+03
  4.209845e+01    7.217048e+03
  4.212133e+01    7.234777e+03
  4.214422e+01    7.261363e+03
  4.216710e+01    7.283231e+03
  4.218999e+01    7.303526e+03
  4.221287e+01    7.329478e+03
  4.223576e+01    7.369043e+03
  4.225864e+01    7.442988e+03
  4.228153e+01    7.589080e+03
  4.230442e+01    7.864389e+03
  4.232730e+01    8.241092e+03
  4.235019e+01    8.566755e+03
  4.237307e+01    8.653100e+03
  4.239596e+01    8.473159e+03
  4.241884e+01    8.135532e+03
  4.244173e+01    7.748928e+03
  4.246461e+01    7.434915e+03
  4.248750e+01    7.224811e+03
  4.251038e+01    7.112148e+03
  4.253327e+01    7.051573e+03
  4.255615e+01    7.009436e+03
  4.257904e+01    6.973618e+03
  4.260192e+01    6.957586e+03
  4.262481e+01    6.949716e+03
  4.264770e+01    6.930554e+03
  4.267058e+01    6.920388e+03
  4.269347e+01    6.917300e+03
  4.271635e+01    6.910415e+03
  4.273924e+01    6.894821e+03
  4.276212e+01    6.895019e+03
  4.278501e+01    6.888859e+03
  4.280789e+01    6.888933e+03
  4.283078e+01    6.878530e+03
  4.285366e+01    6.876964e+03
  4.287655e+01    6.872843e+03
  4.289943e+01    6.877375e+03
  4.292232e+01    6.876688e+03
  4.294521e+01    6.883223e+03
  4.296809e+01    6.883112e+03
  4.299098e+01    6.888328e+03
  4.301386e+01    6.884043e+03
  4.303675e+01    6.883534e+03
  4.305963e+01    6.892288e+03
  4.308252e+01    6.894063e+03
  4.310540e+01    6.905500e+03
  4.312829e+01    6.915965e+03
  4.315117e+01    6.936969e+03
  4.317406e+01    6.950385e+03
  4.319694e+01    6.976618e+03
  4.321983e+01    7.002530e+03
  4.324272e+01    7.039225e+03
  4.326560e+01    7.086458e+03
  4.328849e+01    7.149657e+03
  4.331137e+01    7.270209e+03
  4.333426e+01    7.463712e+03
  4.335714e+01    7.853781e+03
  4.338003e+01    8.580611e+03
  4.340291e+01    9.806285e+03
  4.342580e+01    1.137796e+04
  4.344868e+01    1.258882e+04
  4.347157e+01    1.284049e+04
  4.349445e+01    1.214318e+04
  4.351734e+01    1.089172e+04
  4.354022e+01    9.514200e+03
  4.356311e+01    8.474544e+03
  4.358600e+01    7.849851e+03
  4.360888e+01    7.514879e+03
  4.363177e+01    7.360339e+03
  4.365465e+01    7.273426e+03
  4.367754e+01    7.238818e+03
  4.370042e+01    7.240708e+03
  4.372331e+01    7.254606e+03
  4.374619e+01    7.299424e+03
  4.376908e+01    7.366419e+03
  4.379196e+01    7.446325e+03
  4.381485e+01    7.577360e+03
  4.383773e+01    7.756925e+03
  4.386062e+01    8.018105e+03
  4.388351e+01    8.423855e+03
  4.390639e+01    9.058984e+03
  4.392928e+01    1.006282e+04
  4.395216e+01    1.165398e+04
  4.397505e+01    1.401050e+04
  4.399793e+01    1.702993e+04
  4.402082e+01    1.997920e+04
  4.404370e+01    2.198810e+04
  4.406659e+01    2.240924e+04
  4.408947e+01    2.096303e+04
  4.411236e+01    1.827662e+04
  4.413524e+01    1.543399e+04
  4.415813e+01    1.306645e+04
  4.418102e+01    1.133295e+04
  4.420390e+01    1.014328e+04
  4.422679e+01    9.336878e+03
  4.424967e+01    8.807532e+03
  4.427256e+01    8.491757e+03
  4.429544e+01    8.313518e+03
  4.431833e+01    8.251605e+03
  4.434121e+01    8.309064e+03
  4.436410e+01    8.533190e+03
  4.438698e+01    8.987992e+03
  4.440987e+01    9.860699e+03
  4.443275e+01    1.156040e+04
  4.445564e+01    1.476237e+04
  4.447853e+01    2.002908e+04
  4.450141e+01    2.641094e+04
  4.452430e+01    3.097606e+04
  4.454718e+01    3.143118e+04
  4.457007e+01    2.813363e+04
  4.459295e+01    2.271173e+04
  4.461584e+01    1.708539e+04
  4.463872e+01    1.288867e+04
  4.466161e+01    1.039545e+04
  4.468449e+01    9.031453e+03
  4.470738e+01    8.280108e+03
  4.473026e+01    7.851482e+03
  4.475315e+01    7.578634e+03
  4.477603e+01    7.382138e+03
  4.479892e+01    7.248179e+03
  4.482181e+01    7.157928e+03
  4.484469e+01    7.078770e+03
  4.486758e+01    7.018963e+03
  4.489046e+01    6.968550e+03
  4.491335e+01    6.930244e+03
  4.493623e+01    6.910581e+03
  4.495912e+01    6.884015e+03
  4.498200e+01    6.868041e+03
  4.500489e+01    6.847762e+03
  4.502777e+01    6.833406e+03
  4.505066e+01    6.815762e+03
  4.507354e+01    6.807019e+03
  4.509643e+01    6.800531e+03
  4.511932e+01    6.797426e+03
  4.514220e+01    6.798943e+03
  4.516509e+01    6.790321e+03
  4.518797e+01    6.788162e+03
  4.521086e+01    6.788094e+03
  4.523374e+01    6.789040e+03
  4.525663e+01    6.798444e+03
  4.527951e+01    6.803733e+03
  4.530240e+01    6.818312e+03
  4.532528e+01    6.828884e+03
  4.534817e+01    6.852452e+03
  4.537105e+01    6.896115e+03
  4.539394e+01    6.948282e+03
  4.541683e+01    7.038423e+03
  4.543971e+01    7.187717e+03
  4.546260e+01    7.469538e+03
  4.548548e+01    7.999981e+03
  4.550837e+01    8.961997e+03
  4.553125e+01    1.051283e+04
  4.555414e+01    1.235026e+04
  4.557702e+01    1.360549e+04
  4.559991e+01    1.367323e+04
  4.562279e+01    1.269346e+04
  4.564568e+01    1.114342e+04
  4.566856e+01    9.552332e+03
  4.569145e+01    8.387576e+03
  4.571433e+01    7.686194e+03
  4.573722e+01    7.301671e+03
  4.576011e+01    7.090555e+03
  4.578299e+01    6.977526e+03
  4.580588e+01    6.912955e+03
  4.582876e+01    6.848243e+03
  4.585165e+01    6.824683e+03
  4.587453e+01    6.810135e+03
  4.589742e+01    6.792614e+03
  4.592030e+01    6.782253e+03
  4.594319e+01    6.794932e+03
  4.596607e+01    6.795757e+03
  4.598896e+01    6.789405e+03
  4.601184e+01    6.786312e+03
  4.603473e+01    6.788844e+03
  4.605762e+01    6.801400e+03
  4.608050e+01    6.807231e+03
  4.610339e+01    6.803542e+03
  4.612627e+01    6.826061e+03
  4.614916e+01    6.824246e+03
  4.617204e+01    6.826567e+03
  4.619493e+01    6.820511e+03
  4.621781e+01    6.794184e+03
  4.624070e+01    6.774541e+03
  4.626358e+01    6.763631e+03
  4.628647e+01    6.738808e+03
  4.630935e+01    6.714619e+03
  4.633224e+01    6.712680e+03
  4.635513e+01    6.695051e+03
  4.637801e+01    6.689630e+03
  4.640090e+01    6.697326e+03
  4.642378e+01    6.700937e+03
  4.644667e+01    6.722899e+03
  4.646955e+01    6.761503e+03
  4.649244e+01    6.864743e+03
  4.651532e+01    7.012179e+03
  4.653821e+01    7.294520e+03
  4.656109e+01    7.759586e+03
  4.658398e+01    8.320418e+03
  4.660686e+01    8.741295e+03
  4.662975e+01    8.797857e+03
  4.665263e+01    8.548823e+03
  4.667552e+01    8.096134e+03
  4.669841e+01    7.624875e+03
  4.672129e+01    7.276675e+03
  4.674418e+01    7.068720e+03
  4.676706e+01    6.960109e+03
  4.678995e+01    6.922038e+03
  4.681283e+01    6.904002e+03
  4.683572e+01    6.894229e+03
  4.685860e+01    6.884940e+03
  4.688149e+01    6.880135e+03
  4.690437e+01    6.875823e+03
  4.692726e+01    6.876710e+03
  4.695014e+01    6.871940e+03
  4.697303e+01    6.869362e+03
  4.699592e+01    6.872201e+03
  4.701880e+01    6.874776e+03
  4.704169e+01    6.890760e+03
  4.706457e+01    6.891637e+03
  4.708746e+01    6.886843e+03
  4.711034e+01    6.882319e+03
  4.713323e+01    6.893211e+03
  4.715611e+01    6.874455e+03
  4.717900e+01    6.873588e+03
  4.720188e+01    6.885370e+03
  4.722477e+01    6.896041e+03
  4.724765e+01    6.909639e+03
  4.727054e+01    6.922765e+03
  4.729343e+01    6.945808e+03
  4.731631e+01    6.968614e+03
  4.733920e+01    6.978991e+03
  4.736208e+01    7.011281e+03
  4.738497e+01    7.055237e+03
  4.740785e+01    7.098454e+03
  4.743074e+01    7.152355e+03
  4.745362e+01    7.176882e+03
  4.747651e+01    7.277187e+03
  4.749939e+01    7.404198e+03
  4.752228e+01    7.559452e+03
  4.754516e+01    7.806638e+03
  4.756805e+01    8.103861e+03
  4.759094e+01    8.596174e+03
  4.761382e+01    8.991369e+03
  4.763671e+01    9.088393e+03
  4.765959e+01    8.897147e+03
  4.768248e+01    8.591375e+03
  4.770536e+01    8.232231e+03
  4.772825e+01    7.858097e+03
  4.775113e+01    7.769124e+03
  4.777402e+01    7.525599e+03
  4.779690e+01    7.473117e+03
  4.781979e+01    7.176991e+03
  4.784267e+01    6.881708e+03
  4.786556e+01    5.903763e+03
  4.788844e+01    2.871263e+03