File: Output/ROCK_XRD/WAM39B_integrated/rampe1/wam39b_rampe_1_xrd_000013_integrated.dat
# == pyFAI calibration ==
# Distance Sample to Detector: 0.261615 m
# PONI: 2.023e-01, 2.348e-01 m
# Rotations: -0.026380 0.002005 0.000000 rad
#
# == Fit2d calibration ==
# Distance Sample-beamCenter: 261.707 mm
# Center: x=6119.331, y=5134.776 pix
# Tilt: 1.516 deg  TiltPlanRot: 4.347 deg
#
# Detector Rayonix SX165	 PixelSize= 3.950e-05, 3.950e-05 m
#    Detector has a mask: True
#    Detector has a dark current: False
#    detector has a flat field: False
#
# Wavelength: 1.12713e-10 m
# Mask applied: from detector
# Dark current applied: False
# Flat field applied: False
# Polarization factor: None
# Normalization factor: 1.0
# --> ROCK\\WAM39B_integrated\wam39b_rampe_1_xrd_000013_integrated.dat
#       2th_deg             I
  2.502596e+01    4.505761e+03
  2.504885e+01    1.184165e+04
  2.507173e+01    1.594759e+04
  2.509462e+01    1.694852e+04
  2.511750e+01    1.853051e+04
  2.514039e+01    1.920845e+04
  2.516327e+01    1.915288e+04
  2.518616e+01    1.899413e+04
  2.520905e+01    1.888195e+04
  2.523193e+01    1.866913e+04
  2.525482e+01    1.875797e+04
  2.527770e+01    1.912183e+04
  2.530059e+01    1.907236e+04
  2.532347e+01    1.893022e+04
  2.534636e+01    1.880174e+04
  2.536924e+01    1.874572e+04
  2.539213e+01    1.879246e+04
  2.541501e+01    1.886676e+04
  2.543790e+01    1.898446e+04
  2.546078e+01    1.914918e+04
  2.548367e+01    1.924672e+04
  2.550656e+01    1.924064e+04
  2.552944e+01    1.931672e+04
  2.555233e+01    1.974980e+04
  2.557521e+01    2.009290e+04
  2.559810e+01    2.028161e+04
  2.562098e+01    2.052648e+04
  2.564387e+01    2.076197e+04
  2.566675e+01    2.094617e+04
  2.568964e+01    2.101932e+04
  2.571252e+01    2.107796e+04
  2.573541e+01    2.115940e+04
  2.575829e+01    2.110690e+04
  2.578118e+01    2.091042e+04
  2.580407e+01    2.072368e+04
  2.582695e+01    2.052939e+04
  2.584984e+01    2.030187e+04
  2.587272e+01    2.008662e+04
  2.589561e+01    1.996603e+04
  2.591849e+01    1.980837e+04
  2.594138e+01    1.973011e+04
  2.596426e+01    1.974646e+04
  2.598715e+01    1.969811e+04
  2.601003e+01    1.978854e+04
  2.603292e+01    1.986145e+04
  2.605580e+01    1.994901e+04
  2.607869e+01    2.010350e+04
  2.610157e+01    2.026302e+04
  2.612446e+01    2.045388e+04
  2.614735e+01    2.069302e+04
  2.617023e+01    2.094444e+04
  2.619312e+01    2.126688e+04
  2.621600e+01    2.169359e+04
  2.623889e+01    2.214573e+04
  2.626177e+01    2.282553e+04
  2.628466e+01    2.377549e+04
  2.630754e+01    2.511112e+04
  2.633043e+01    2.688356e+04
  2.635331e+01    2.894474e+04
  2.637620e+01    3.080339e+04
  2.639908e+01    3.168228e+04
  2.642197e+01    3.118933e+04
  2.644486e+01    2.954483e+04
  2.646774e+01    2.748114e+04
  2.649063e+01    2.550383e+04
  2.651351e+01    2.410762e+04
  2.653640e+01    2.315610e+04
  2.655928e+01    2.255197e+04
  2.658217e+01    2.215801e+04
  2.660505e+01    2.192013e+04
  2.662794e+01    2.177063e+04
  2.665082e+01    2.162210e+04
  2.667371e+01    2.150857e+04
  2.669659e+01    2.138677e+04
  2.671948e+01    2.124125e+04
  2.674237e+01    2.107361e+04
  2.676525e+01    2.087122e+04
  2.678814e+01    2.063800e+04
  2.681102e+01    2.040222e+04
  2.683391e+01    2.013156e+04
  2.685679e+01    1.986011e+04
  2.687968e+01    1.957321e+04
  2.690256e+01    1.922392e+04
  2.692545e+01    1.893194e+04
  2.694833e+01    1.862260e+04
  2.697122e+01    1.831486e+04
  2.699410e+01    1.803709e+04
  2.701699e+01    1.782739e+04
  2.703988e+01    1.757530e+04
  2.706276e+01    1.735950e+04
  2.708565e+01    1.718509e+04
  2.710853e+01    1.701491e+04
  2.713142e+01    1.685593e+04
  2.715430e+01    1.670953e+04
  2.717719e+01    1.657374e+04
  2.720007e+01    1.642828e+04
  2.722296e+01    1.631401e+04
  2.724584e+01    1.619890e+04
  2.726873e+01    1.613254e+04
  2.729161e+01    1.604153e+04
  2.731450e+01    1.595709e+04
  2.733738e+01    1.587466e+04
  2.736027e+01    1.580745e+04
  2.738316e+01    1.574991e+04
  2.740604e+01    1.569689e+04
  2.742893e+01    1.566212e+04
  2.745181e+01    1.564970e+04
  2.747470e+01    1.561015e+04
  2.749758e+01    1.557678e+04
  2.752047e+01    1.555490e+04
  2.754335e+01    1.555050e+04
  2.756624e+01    1.556430e+04
  2.758912e+01    1.556916e+04
  2.761201e+01    1.557285e+04
  2.763489e+01    1.559346e+04
  2.765778e+01    1.563846e+04
  2.768067e+01    1.569327e+04
  2.770355e+01    1.577599e+04
  2.772644e+01    1.584907e+04
  2.774932e+01    1.593714e+04
  2.777221e+01    1.607705e+04
  2.779509e+01    1.624761e+04
  2.781798e+01    1.646665e+04
  2.784086e+01    1.669959e+04
  2.786375e+01    1.698781e+04
  2.788663e+01    1.732858e+04
  2.790952e+01    1.775494e+04
  2.793240e+01    1.832618e+04
  2.795529e+01    1.904154e+04
  2.797818e+01    1.991400e+04
  2.800106e+01    2.077615e+04
  2.802395e+01    2.133482e+04
  2.804683e+01    2.129900e+04
  2.806972e+01    2.058777e+04
  2.809260e+01    1.944826e+04
  2.811549e+01    1.823843e+04
  2.813837e+01    1.721096e+04
  2.816126e+01    1.642360e+04
  2.818414e+01    1.584694e+04
  2.820703e+01    1.541948e+04
  2.822991e+01    1.506874e+04
  2.825280e+01    1.478183e+04
  2.827568e+01    1.455369e+04
  2.829857e+01    1.436228e+04
  2.832146e+01    1.419767e+04
  2.834434e+01    1.403809e+04
  2.836723e+01    1.390264e+04
  2.839011e+01    1.378815e+04
  2.841300e+01    1.367781e+04
  2.843588e+01    1.358570e+04
  2.845877e+01    1.348670e+04
  2.848165e+01    1.338925e+04
  2.850454e+01    1.331700e+04
  2.852742e+01    1.325481e+04
  2.855031e+01    1.320222e+04
  2.857319e+01    1.312724e+04
  2.859608e+01    1.306226e+04
  2.861897e+01    1.300966e+04
  2.864185e+01    1.294420e+04
  2.866474e+01    1.288339e+04
  2.868762e+01    1.281499e+04
  2.871051e+01    1.276445e+04
  2.873339e+01    1.271767e+04
  2.875628e+01    1.266115e+04
  2.877916e+01    1.260913e+04
  2.880205e+01    1.254636e+04
  2.882493e+01    1.249768e+04
  2.884782e+01    1.245111e+04
  2.887070e+01    1.240440e+04
  2.889359e+01    1.235535e+04
  2.891648e+01    1.230711e+04
  2.893936e+01    1.225991e+04
  2.896225e+01    1.220459e+04
  2.898513e+01    1.215226e+04
  2.900802e+01    1.211251e+04
  2.903090e+01    1.207047e+04
  2.905379e+01    1.202476e+04
  2.907667e+01    1.199310e+04
  2.909956e+01    1.195800e+04
  2.912244e+01    1.191519e+04
  2.914533e+01    1.187518e+04
  2.916821e+01    1.184285e+04
  2.919110e+01    1.180690e+04
  2.921398e+01    1.177259e+04
  2.923687e+01    1.174872e+04
  2.925976e+01    1.171654e+04
  2.928264e+01    1.167923e+04
  2.930553e+01    1.165767e+04
  2.932841e+01    1.163246e+04
  2.935130e+01    1.160591e+04
  2.937418e+01    1.159904e+04
  2.939707e+01    1.161088e+04
  2.941995e+01    1.161416e+04
  2.944284e+01    1.165066e+04
  2.946572e+01    1.175536e+04
  2.948861e+01    1.190573e+04
  2.951149e+01    1.214228e+04
  2.953438e+01    1.247932e+04
  2.955727e+01    1.283092e+04
  2.958015e+01    1.305131e+04
  2.960304e+01    1.304346e+04
  2.962592e+01    1.278333e+04
  2.964881e+01    1.237364e+04
  2.967169e+01    1.196599e+04
  2.969458e+01    1.165773e+04
  2.971746e+01    1.144579e+04
  2.974035e+01    1.129991e+04
  2.976323e+01    1.119306e+04
  2.978612e+01    1.112787e+04
  2.980900e+01    1.108306e+04
  2.983189e+01    1.104663e+04
  2.985478e+01    1.102039e+04
  2.987766e+01    1.099280e+04
  2.990055e+01    1.097593e+04
  2.992343e+01    1.096929e+04
  2.994632e+01    1.095012e+04
  2.996920e+01    1.093565e+04
  2.999209e+01    1.093218e+04
  3.001497e+01    1.093947e+04
  3.003786e+01    1.094134e+04
  3.006074e+01    1.094201e+04
  3.008363e+01    1.094532e+04
  3.010651e+01    1.096208e+04
  3.012940e+01    1.098920e+04
  3.015228e+01    1.099538e+04
  3.017517e+01    1.100351e+04
  3.019806e+01    1.102597e+04
  3.022094e+01    1.103770e+04
  3.024383e+01    1.105824e+04
  3.026671e+01    1.108785e+04
  3.028960e+01    1.112733e+04
  3.031248e+01    1.117210e+04
  3.033537e+01    1.122431e+04
  3.035825e+01    1.127865e+04
  3.038114e+01    1.133803e+04
  3.040402e+01    1.140065e+04
  3.042691e+01    1.147255e+04
  3.044979e+01    1.156126e+04
  3.047268e+01    1.166658e+04
  3.049557e+01    1.177732e+04
  3.051845e+01    1.189335e+04
  3.054134e+01    1.201355e+04
  3.056422e+01    1.216523e+04
  3.058711e+01    1.233304e+04
  3.060999e+01    1.250382e+04
  3.063288e+01    1.270523e+04
  3.065576e+01    1.293145e+04
  3.067865e+01    1.317595e+04
  3.070153e+01    1.344862e+04
  3.072442e+01    1.374271e+04
  3.074730e+01    1.405012e+04
  3.077019e+01    1.437384e+04
  3.079308e+01    1.472345e+04
  3.081596e+01    1.507362e+04
  3.083885e+01    1.545157e+04
  3.086173e+01    1.587293e+04
  3.088462e+01    1.637986e+04
  3.090750e+01    1.700633e+04
  3.093039e+01    1.788135e+04
  3.095327e+01    1.918234e+04
  3.097616e+01    2.116107e+04
  3.099904e+01    2.399925e+04
  3.102193e+01    2.749708e+04
  3.104481e+01    3.070572e+04
  3.106770e+01    3.228645e+04
  3.109059e+01    3.142549e+04
  3.111347e+01    2.846350e+04
  3.113636e+01    2.454403e+04
  3.115924e+01    2.090826e+04
  3.118213e+01    1.816437e+04
  3.120501e+01    1.626962e+04
  3.122790e+01    1.498617e+04
  3.125078e+01    1.410075e+04
  3.127367e+01    1.345543e+04
  3.129655e+01    1.295537e+04
  3.131944e+01    1.256845e+04
  3.134232e+01    1.224796e+04
  3.136521e+01    1.198632e+04
  3.138809e+01    1.176438e+04
  3.141098e+01    1.157521e+04
  3.143387e+01    1.141167e+04
  3.145675e+01    1.126353e+04
  3.147964e+01    1.112648e+04
  3.150252e+01    1.100600e+04
  3.152541e+01    1.090165e+04
  3.154829e+01    1.079862e+04
  3.157118e+01    1.071098e+04
  3.159406e+01    1.063940e+04
  3.161695e+01    1.056116e+04
  3.163983e+01    1.048614e+04
  3.166272e+01    1.042588e+04
  3.168560e+01    1.036850e+04
  3.170849e+01    1.032129e+04
  3.173138e+01    1.027437e+04
  3.175426e+01    1.022392e+04
  3.177715e+01    1.017778e+04
  3.180003e+01    1.014129e+04
  3.182292e+01    1.009978e+04
  3.184580e+01    1.005867e+04
  3.186869e+01    1.002045e+04
  3.189157e+01    9.982584e+03
  3.191446e+01    9.949428e+03
  3.193734e+01    9.924353e+03
  3.196023e+01    9.891752e+03
  3.198311e+01    9.853968e+03
  3.200600e+01    9.819785e+03
  3.202889e+01    9.793278e+03
  3.205177e+01    9.764791e+03
  3.207466e+01    9.735692e+03
  3.209754e+01    9.703461e+03
  3.212043e+01    9.680606e+03
  3.214331e+01    9.661839e+03
  3.216620e+01    9.635650e+03
  3.218908e+01    9.606499e+03
  3.221197e+01    9.580458e+03
  3.223485e+01    9.564229e+03
  3.225774e+01    9.555839e+03
  3.228062e+01    9.554836e+03
  3.230351e+01    9.557180e+03
  3.232639e+01    9.573801e+03
  3.234928e+01    9.612155e+03
  3.237217e+01    9.703248e+03
  3.239505e+01    9.854504e+03
  3.241794e+01    1.009744e+04
  3.244082e+01    1.041655e+04
  3.246371e+01    1.071638e+04
  3.248659e+01    1.086218e+04
  3.250948e+01    1.078967e+04
  3.253236e+01    1.051838e+04
  3.255525e+01    1.014504e+04
  3.257813e+01    9.797312e+03
  3.260102e+01    9.540651e+03
  3.262390e+01    9.370647e+03
  3.264679e+01    9.256681e+03
  3.266968e+01    9.175384e+03
  3.269256e+01    9.119703e+03
  3.271545e+01    9.085135e+03
  3.273833e+01    9.048466e+03
  3.276122e+01    9.011197e+03
  3.278410e+01    8.983662e+03
  3.280699e+01    8.967554e+03
  3.282987e+01    8.949348e+03
  3.285276e+01    8.931509e+03
  3.287564e+01    8.909175e+03
  3.289853e+01    8.899158e+03
  3.292141e+01    8.877313e+03
  3.294430e+01    8.858973e+03
  3.296719e+01    8.837851e+03
  3.299007e+01    8.814829e+03
  3.301296e+01    8.797977e+03
  3.303584e+01    8.791202e+03
  3.305873e+01    8.775453e+03
  3.308161e+01    8.762532e+03
  3.310450e+01    8.752386e+03
  3.312738e+01    8.748959e+03
  3.315027e+01    8.744393e+03
  3.317315e+01    8.735135e+03
  3.319604e+01    8.728234e+03
  3.321892e+01    8.726582e+03
  3.324181e+01    8.728923e+03
  3.326469e+01    8.726343e+03
  3.328758e+01    8.729538e+03
  3.331047e+01    8.734586e+03
  3.333335e+01    8.723571e+03
  3.335624e+01    8.719442e+03
  3.337912e+01    8.718918e+03
  3.340201e+01    8.720336e+03
  3.342489e+01    8.729999e+03
  3.344778e+01    8.732943e+03
  3.347066e+01    8.734013e+03
  3.349355e+01    8.754626e+03
  3.351643e+01    8.774866e+03
  3.353932e+01    8.794837e+03
  3.356220e+01    8.838360e+03
  3.358509e+01    8.899174e+03
  3.360798e+01    8.967169e+03
  3.363086e+01    9.072202e+03
  3.365375e+01    9.238943e+03
  3.367663e+01    9.480373e+03
  3.369952e+01    9.856966e+03
  3.372240e+01    1.048195e+04
  3.374529e+01    1.150985e+04
  3.376817e+01    1.316124e+04
  3.379106e+01    1.553623e+04
  3.381394e+01    1.831056e+04
  3.383683e+01    2.057980e+04
  3.385971e+01    2.141282e+04
  3.388260e+01    2.045621e+04
  3.390549e+01    1.813972e+04
  3.392837e+01    1.540002e+04
  3.395126e+01    1.306044e+04
  3.397414e+01    1.144360e+04
  3.399703e+01    1.041887e+04
  3.401991e+01    9.798313e+03
  3.404280e+01    9.414156e+03
  3.406568e+01    9.164467e+03
  3.408857e+01    9.003020e+03
  3.411145e+01    8.893324e+03
  3.413434e+01    8.811771e+03
  3.415722e+01    8.752922e+03
  3.418011e+01    8.705060e+03
  3.420300e+01    8.661802e+03
  3.422588e+01    8.625539e+03
  3.424877e+01    8.603647e+03
  3.427165e+01    8.585346e+03
  3.429454e+01    8.551176e+03
  3.431742e+01    8.526729e+03
  3.434031e+01    8.504027e+03
  3.436319e+01    8.470693e+03
  3.438608e+01    8.442008e+03
  3.440896e+01    8.421530e+03
  3.443185e+01    8.397178e+03
  3.445473e+01    8.366767e+03
  3.447762e+01    8.332562e+03
  3.450050e+01    8.303362e+03
  3.452339e+01    8.277019e+03
  3.454628e+01    8.262871e+03
  3.456916e+01    8.244963e+03
  3.459205e+01    8.226182e+03
  3.461493e+01    8.205972e+03
  3.463782e+01    8.191047e+03
  3.466070e+01    8.181008e+03
  3.468359e+01    8.171514e+03
  3.470647e+01    8.168579e+03
  3.472936e+01    8.158497e+03
  3.475224e+01    8.152764e+03
  3.477513e+01    8.156105e+03
  3.479801e+01    8.159447e+03
  3.482090e+01    8.174793e+03
  3.484379e+01    8.188849e+03
  3.486667e+01    8.204498e+03
  3.488956e+01    8.217822e+03
  3.491244e+01    8.237644e+03
  3.493533e+01    8.264369e+03
  3.495821e+01    8.284312e+03
  3.498110e+01    8.321034e+03
  3.500398e+01    8.349671e+03
  3.502687e+01    8.372990e+03
  3.504975e+01    8.395382e+03
  3.507264e+01    8.406373e+03
  3.509552e+01    8.390537e+03
  3.511841e+01    8.375885e+03
  3.514130e+01    8.347824e+03
  3.516418e+01    8.319063e+03
  3.518707e+01    8.270089e+03
  3.520995e+01    8.215588e+03
  3.523284e+01    8.165185e+03
  3.525572e+01    8.116235e+03
  3.527861e+01    8.064556e+03
  3.530149e+01    8.023045e+03
  3.532438e+01    7.981518e+03
  3.534726e+01    7.943346e+03
  3.537015e+01    7.915664e+03
  3.539303e+01    7.888501e+03
  3.541592e+01    7.859668e+03
  3.543880e+01    7.832596e+03
  3.546169e+01    7.810210e+03
  3.548458e+01    7.786321e+03
  3.550746e+01    7.765076e+03
  3.553035e+01    7.743453e+03
  3.555323e+01    7.722473e+03
  3.557612e+01    7.702012e+03
  3.559900e+01    7.689840e+03
  3.562189e+01    7.679217e+03
  3.564477e+01    7.664154e+03
  3.566766e+01    7.655698e+03
  3.569054e+01    7.644813e+03
  3.571343e+01    7.635761e+03
  3.573631e+01    7.632666e+03
  3.575920e+01    7.622792e+03
  3.578209e+01    7.610381e+03
  3.580497e+01    7.606125e+03
  3.582786e+01    7.603295e+03
  3.585074e+01    7.605233e+03
  3.587363e+01    7.604016e+03
  3.589651e+01    7.597881e+03
  3.591940e+01    7.601307e+03
  3.594228e+01    7.600396e+03
  3.596517e+01    7.599233e+03
  3.598805e+01    7.610815e+03
  3.601094e+01    7.617716e+03
  3.603382e+01    7.618387e+03
  3.605671e+01    7.620128e+03
  3.607960e+01    7.631784e+03
  3.610248e+01    7.643522e+03
  3.612537e+01    7.661832e+03
  3.614825e+01    7.685975e+03
  3.617114e+01    7.714104e+03
  3.619402e+01    7.748476e+03
  3.621691e+01    7.787529e+03
  3.623979e+01    7.838591e+03
  3.626268e+01    7.925915e+03
  3.628556e+01    8.058873e+03
  3.630845e+01    8.275866e+03
  3.633133e+01    8.626303e+03
  3.635422e+01    9.194953e+03
  3.637710e+01    1.004420e+04
  3.639999e+01    1.112260e+04
  3.642288e+01    1.213861e+04
  3.644576e+01    1.267098e+04
  3.646865e+01    1.252253e+04
  3.649153e+01    1.176754e+04
  3.651442e+01    1.070235e+04
  3.653730e+01    9.719102e+03
  3.656019e+01    8.994362e+03
  3.658307e+01    8.533381e+03
  3.660596e+01    8.253115e+03
  3.662884e+01    8.080946e+03
  3.665173e+01    7.971746e+03
  3.667461e+01    7.903435e+03
  3.669750e+01    7.865004e+03
  3.672039e+01    7.826537e+03
  3.674327e+01    7.808108e+03
  3.676616e+01    7.790612e+03
  3.678904e+01    7.786153e+03
  3.681193e+01    7.788434e+03
  3.683481e+01    7.788831e+03
  3.685770e+01    7.775520e+03
  3.688058e+01    7.786106e+03
  3.690347e+01    7.800363e+03
  3.692635e+01    7.812072e+03
  3.694924e+01    7.814962e+03
  3.697212e+01    7.824608e+03
  3.699501e+01    7.843811e+03
  3.701790e+01    7.857646e+03
  3.704078e+01    7.882656e+03
  3.706367e+01    7.906903e+03
  3.708655e+01    7.938325e+03
  3.710944e+01    7.982221e+03
  3.713232e+01    8.017030e+03
  3.715521e+01    8.065846e+03
  3.717809e+01    8.119259e+03
  3.720098e+01    8.173401e+03
  3.722386e+01    8.236613e+03
  3.724675e+01    8.301018e+03
  3.726963e+01    8.370801e+03
  3.729252e+01    8.456380e+03
  3.731541e+01    8.559375e+03
  3.733829e+01    8.696214e+03
  3.736118e+01    8.866701e+03
  3.738406e+01    9.073886e+03
  3.740695e+01    9.342472e+03
  3.742983e+01    9.697631e+03
  3.745272e+01    1.017032e+04
  3.747560e+01    1.082070e+04
  3.749849e+01    1.178422e+04
  3.752137e+01    1.326960e+04
  3.754426e+01    1.565815e+04
  3.756714e+01    1.962093e+04
  3.759003e+01    2.615265e+04
  3.761291e+01    3.613994e+04
  3.763580e+01    4.913456e+04
  3.765869e+01    6.165085e+04
  3.768157e+01    6.869630e+04
  3.770446e+01    6.740869e+04
  3.772734e+01    5.858414e+04
  3.775023e+01    4.582495e+04
  3.777311e+01    3.362990e+04
  3.779600e+01    2.460008e+04
  3.781888e+01    1.875142e+04
  3.784177e+01    1.518572e+04
  3.786465e+01    1.301394e+04
  3.788754e+01    1.165056e+04
  3.791042e+01    1.075144e+04
  3.793331e+01    1.013643e+04
  3.795620e+01    9.681615e+03
  3.797908e+01    9.328375e+03
  3.800197e+01    9.073152e+03
  3.802485e+01    8.870274e+03
  3.804774e+01    8.706321e+03
  3.807062e+01    8.579797e+03
  3.809351e+01    8.476346e+03
  3.811639e+01    8.395671e+03
  3.813928e+01    8.321741e+03
  3.816216e+01    8.260564e+03
  3.818505e+01    8.209980e+03
  3.820793e+01    8.163178e+03
  3.823082e+01    8.115573e+03
  3.825371e+01    8.089516e+03
  3.827659e+01    8.073883e+03
  3.829948e+01    8.059113e+03
  3.832236e+01    8.031948e+03
  3.834525e+01    8.004769e+03
  3.836813e+01    7.992489e+03
  3.839102e+01    7.981627e+03
  3.841390e+01    7.970354e+03
  3.843679e+01    7.955512e+03
  3.845967e+01    7.943433e+03
  3.848256e+01    7.920050e+03
  3.850544e+01    7.914752e+03
  3.852833e+01    7.905528e+03
  3.855121e+01    7.894220e+03
  3.857410e+01    7.892112e+03
  3.859699e+01    7.885798e+03
  3.861987e+01    7.881545e+03
  3.864276e+01    7.886057e+03
  3.866564e+01    7.893634e+03
  3.868853e+01    7.914346e+03
  3.871141e+01    7.947892e+03
  3.873430e+01    8.016896e+03
  3.875718e+01    8.130083e+03
  3.878007e+01    8.312302e+03
  3.880295e+01    8.599095e+03
  3.882584e+01    9.041510e+03
  3.884872e+01    9.557326e+03
  3.887161e+01    9.967439e+03
  3.889450e+01    1.010137e+04
  3.891738e+01    9.908539e+03
  3.894027e+01    9.476800e+03
  3.896315e+01    8.970208e+03
  3.898604e+01    8.538248e+03
  3.900892e+01    8.232193e+03
  3.903181e+01    8.037536e+03
  3.905469e+01    7.925094e+03
  3.907758e+01    7.847605e+03
  3.910046e+01    7.801447e+03
  3.912335e+01    7.770763e+03
  3.914623e+01    7.750910e+03
  3.916912e+01    7.738473e+03
  3.919201e+01    7.732521e+03
  3.921489e+01    7.706091e+03
  3.923778e+01    7.695853e+03
  3.926066e+01    7.684619e+03
  3.928355e+01    7.682208e+03
  3.930643e+01    7.676650e+03
  3.932932e+01    7.662697e+03
  3.935220e+01    7.657151e+03
  3.937509e+01    7.659669e+03
  3.939797e+01    7.654578e+03
  3.942086e+01    7.652006e+03
  3.944374e+01    7.638231e+03
  3.946663e+01    7.641757e+03
  3.948951e+01    7.636362e+03
  3.951240e+01    7.621070e+03
  3.953529e+01    7.615370e+03
  3.955817e+01    7.613196e+03
  3.958106e+01    7.609314e+03
  3.960394e+01    7.606791e+03
  3.962683e+01    7.596200e+03
  3.964971e+01    7.595732e+03
  3.967260e+01    7.591602e+03
  3.969548e+01    7.584135e+03
  3.971837e+01    7.580581e+03
  3.974125e+01    7.575823e+03
  3.976414e+01    7.569215e+03
  3.978702e+01    7.572522e+03
  3.980991e+01    7.570472e+03
  3.983280e+01    7.569643e+03
  3.985568e+01    7.582921e+03
  3.987857e+01    7.612268e+03
  3.990145e+01    7.646589e+03
  3.992434e+01    7.655426e+03
  3.994722e+01    7.693370e+03
  3.997011e+01    7.768069e+03
  3.999299e+01    7.872114e+03
  4.001588e+01    8.008792e+03
  4.003876e+01    8.129961e+03
  4.006165e+01    8.195725e+03
  4.008453e+01    8.188076e+03
  4.010742e+01    8.100708e+03
  4.013031e+01    7.974107e+03
  4.015319e+01    7.873857e+03
  4.017608e+01    7.812872e+03
  4.019896e+01    7.778241e+03
  4.022185e+01    7.766021e+03
  4.024473e+01    7.774100e+03
  4.026762e+01    7.791200e+03
  4.029050e+01    7.815664e+03
  4.031339e+01    7.843098e+03
  4.033627e+01    7.860929e+03
  4.035916e+01    7.887042e+03
  4.038204e+01    7.903836e+03
  4.040493e+01    7.915560e+03
  4.042782e+01    7.928790e+03
  4.045070e+01    7.939041e+03
  4.047359e+01    7.922451e+03
  4.049647e+01    7.890944e+03
  4.051936e+01    7.866694e+03
  4.054224e+01    7.844496e+03
  4.056513e+01    7.807553e+03
  4.058801e+01    7.766273e+03
  4.061090e+01    7.733250e+03
  4.063378e+01    7.707519e+03
  4.065667e+01    7.683767e+03
  4.067955e+01    7.649595e+03
  4.070244e+01    7.622261e+03
  4.072532e+01    7.606827e+03
  4.074821e+01    7.586006e+03
  4.077110e+01    7.576727e+03
  4.079398e+01    7.568425e+03
  4.081687e+01    7.564424e+03
  4.083975e+01    7.560944e+03
  4.086264e+01    7.560569e+03
  4.088552e+01    7.566098e+03
  4.090841e+01    7.580102e+03
  4.093129e+01    7.606259e+03
  4.095418e+01    7.651550e+03
  4.097706e+01    7.699937e+03
  4.099995e+01    7.773117e+03
  4.102283e+01    7.889554e+03
  4.104572e+01    8.074848e+03
  4.106861e+01    8.362457e+03
  4.109149e+01    8.850284e+03
  4.111438e+01    9.657578e+03
  4.113726e+01    1.084055e+04
  4.116015e+01    1.227929e+04
  4.118303e+01    1.351446e+04
  4.120592e+01    1.403986e+04
  4.122880e+01    1.369655e+04
  4.125169e+01    1.263292e+04
  4.127457e+01    1.126103e+04
  4.129746e+01    1.004372e+04
  4.132034e+01    9.164753e+03
  4.134323e+01    8.616928e+03
  4.136612e+01    8.301229e+03
  4.138900e+01    8.111274e+03
  4.141189e+01    7.996367e+03
  4.143477e+01    7.919283e+03
  4.145766e+01    7.873749e+03
  4.148054e+01    7.826167e+03
  4.150343e+01    7.788592e+03
  4.152631e+01    7.757773e+03
  4.154920e+01    7.725602e+03
  4.157208e+01    7.691133e+03
  4.159497e+01    7.668194e+03
  4.161785e+01    7.651183e+03
  4.164074e+01    7.634726e+03
  4.166362e+01    7.613979e+03
  4.168651e+01    7.597608e+03
  4.170940e+01    7.579403e+03
  4.173228e+01    7.563176e+03
  4.175517e+01    7.554601e+03
  4.177805e+01    7.547627e+03
  4.180094e+01    7.537546e+03
  4.182382e+01    7.535625e+03
  4.184671e+01    7.527395e+03
  4.186959e+01    7.526670e+03
  4.189248e+01    7.526690e+03
  4.191536e+01    7.531674e+03
  4.193825e+01    7.533000e+03
  4.196113e+01    7.535478e+03
  4.198402e+01    7.538592e+03
  4.200691e+01    7.545395e+03
  4.202979e+01    7.543713e+03
  4.205268e+01    7.543869e+03
  4.207556e+01    7.552917e+03
  4.209845e+01    7.566580e+03
  4.212133e+01    7.582890e+03
  4.214422e+01    7.606078e+03
  4.216710e+01    7.652767e+03
  4.218999e+01    7.725422e+03
  4.221287e+01    7.838465e+03
  4.223576e+01    8.016261e+03
  4.225864e+01    8.277396e+03
  4.228153e+01    8.574588e+03
  4.230442e+01    8.813281e+03
  4.232730e+01    8.879192e+03
  4.235019e+01    8.755244e+03
  4.237307e+01    8.482673e+03
  4.239596e+01    8.166136e+03
  4.241884e+01    7.902407e+03
  4.244173e+01    7.704693e+03
  4.246461e+01    7.580710e+03
  4.248750e+01    7.492542e+03
  4.251038e+01    7.444000e+03
  4.253327e+01    7.396130e+03
  4.255615e+01    7.360838e+03
  4.257904e+01    7.337219e+03
  4.260192e+01    7.325015e+03
  4.262481e+01    7.309790e+03
  4.264770e+01    7.290245e+03
  4.267058e+01    7.285340e+03
  4.269347e+01    7.269345e+03
  4.271635e+01    7.257517e+03
  4.273924e+01    7.250352e+03
  4.276212e+01    7.235743e+03
  4.278501e+01    7.228344e+03
  4.280789e+01    7.227980e+03
  4.283078e+01    7.223257e+03
  4.285366e+01    7.227297e+03
  4.287655e+01    7.223752e+03
  4.289943e+01    7.233281e+03
  4.292232e+01    7.226529e+03
  4.294521e+01    7.233616e+03
  4.296809e+01    7.239917e+03
  4.299098e+01    7.243392e+03
  4.301386e+01    7.250114e+03
  4.303675e+01    7.260086e+03
  4.305963e+01    7.266646e+03
  4.308252e+01    7.274897e+03
  4.310540e+01    7.303612e+03
  4.312829e+01    7.332297e+03
  4.315117e+01    7.375077e+03
  4.317406e+01    7.416044e+03
  4.319694e+01    7.483828e+03
  4.321983e+01    7.567077e+03
  4.324272e+01    7.693087e+03
  4.326560e+01    7.899199e+03
  4.328849e+01    8.208681e+03
  4.331137e+01    8.729261e+03
  4.333426e+01    9.535008e+03
  4.335714e+01    1.068046e+04
  4.338003e+01    1.189996e+04
  4.340291e+01    1.275314e+04
  4.342580e+01    1.291196e+04
  4.344868e+01    1.232637e+04
  4.347157e+01    1.126935e+04
  4.349445e+01    1.012873e+04
  4.351734e+01    9.217560e+03
  4.354022e+01    8.606652e+03
  4.356311e+01    8.255494e+03
  4.358600e+01    8.051191e+03
  4.360888e+01    7.930921e+03
  4.363177e+01    7.881589e+03
  4.365465e+01    7.862313e+03
  4.367754e+01    7.875002e+03
  4.370042e+01    7.905336e+03
  4.372331e+01    7.945761e+03
  4.374619e+01    8.006426e+03
  4.376908e+01    8.075653e+03
  4.379196e+01    8.124579e+03
  4.381485e+01    8.204568e+03
  4.383773e+01    8.267726e+03
  4.386062e+01    8.319388e+03
  4.388351e+01    8.372564e+03
  4.390639e+01    8.421194e+03
  4.392928e+01    8.461490e+03
  4.395216e+01    8.516548e+03
  4.397505e+01    8.578335e+03
  4.399793e+01    8.640962e+03
  4.402082e+01    8.731604e+03
  4.404370e+01    8.839852e+03
  4.406659e+01    8.935656e+03
  4.408947e+01    9.042845e+03
  4.411236e+01    9.170949e+03
  4.413524e+01    9.298275e+03
  4.415813e+01    9.428562e+03
  4.418102e+01    9.582736e+03
  4.420390e+01    9.758172e+03
  4.422679e+01    9.947854e+03
  4.424967e+01    1.018154e+04
  4.427256e+01    1.049203e+04
  4.429544e+01    1.088998e+04
  4.431833e+01    1.145003e+04
  4.434121e+01    1.230807e+04
  4.436410e+01    1.372583e+04
  4.438698e+01    1.603128e+04
  4.440987e+01    1.958594e+04
  4.443275e+01    2.432267e+04
  4.445564e+01    2.906112e+04
  4.447853e+01    3.191987e+04
  4.450141e+01    3.172121e+04
  4.452430e+01    2.870168e+04
  4.454718e+01    2.397827e+04
  4.457007e+01    1.919708e+04
  4.459295e+01    1.552858e+04
  4.461584e+01    1.306956e+04
  4.463872e+01    1.150852e+04
  4.466161e+01    1.052188e+04
  4.468449e+01    9.866108e+03
  4.470738e+01    9.408938e+03
  4.473026e+01    9.086932e+03
  4.475315e+01    8.851814e+03
  4.477603e+01    8.663417e+03
  4.479892e+01    8.510450e+03
  4.482181e+01    8.387058e+03
  4.484469e+01    8.271563e+03
  4.486758e+01    8.170232e+03
  4.489046e+01    8.083194e+03
  4.491335e+01    8.001396e+03
  4.493623e+01    7.946402e+03
  4.495912e+01    7.880289e+03
  4.498200e+01    7.831064e+03
  4.500489e+01    7.773581e+03
  4.502777e+01    7.728450e+03
  4.505066e+01    7.686317e+03
  4.507354e+01    7.652330e+03
  4.509643e+01    7.633829e+03
  4.511932e+01    7.607354e+03
  4.514220e+01    7.580811e+03
  4.516509e+01    7.555376e+03
  4.518797e+01    7.544542e+03
  4.521086e+01    7.538618e+03
  4.523374e+01    7.543704e+03
  4.525663e+01    7.560632e+03
  4.527951e+01    7.587050e+03
  4.530240e+01    7.630950e+03
  4.532528e+01    7.691627e+03
  4.534817e+01    7.810172e+03
  4.537105e+01    7.966199e+03
  4.539394e+01    8.205044e+03
  4.541683e+01    8.640648e+03
  4.543971e+01    9.345436e+03
  4.546260e+01    1.040762e+04
  4.548548e+01    1.180445e+04
  4.550837e+01    1.314467e+04
  4.553125e+01    1.389734e+04
  4.555414e+01    1.377563e+04
  4.557702e+01    1.286347e+04
  4.559991e+01    1.150658e+04
  4.562279e+01    1.017166e+04
  4.564568e+01    9.182576e+03
  4.566856e+01    8.527360e+03
  4.569145e+01    8.122475e+03
  4.571433e+01    7.870667e+03
  4.573722e+01    7.700074e+03
  4.576011e+01    7.593763e+03
  4.578299e+01    7.528047e+03
  4.580588e+01    7.473405e+03
  4.582876e+01    7.419981e+03
  4.585165e+01    7.401766e+03
  4.587453e+01    7.381042e+03
  4.589742e+01    7.359171e+03
  4.592030e+01    7.342056e+03
  4.594319e+01    7.333208e+03
  4.596607e+01    7.318765e+03
  4.598896e+01    7.304419e+03
  4.601184e+01    7.282736e+03
  4.603473e+01    7.261159e+03
  4.605762e+01    7.263623e+03
  4.608050e+01    7.253213e+03
  4.610339e+01    7.238942e+03
  4.612627e+01    7.243208e+03
  4.614916e+01    7.212796e+03
  4.617204e+01    7.215064e+03
  4.619493e+01    7.215240e+03
  4.621781e+01    7.207614e+03
  4.624070e+01    7.199960e+03
  4.626358e+01    7.217654e+03
  4.628647e+01    7.201384e+03
  4.630935e+01    7.203607e+03
  4.633224e+01    7.219747e+03
  4.635513e+01    7.222865e+03
  4.637801e+01    7.246809e+03
  4.640090e+01    7.308602e+03
  4.642378e+01    7.383898e+03
  4.644667e+01    7.512066e+03
  4.646955e+01    7.717434e+03
  4.649244e+01    8.068324e+03
  4.651532e+01    8.502642e+03
  4.653821e+01    8.908337e+03
  4.656109e+01    9.143932e+03
  4.658398e+01    9.115798e+03
  4.660686e+01    8.837477e+03
  4.662975e+01    8.434834e+03
  4.665263e+01    8.046273e+03
  4.667552e+01    7.747420e+03
  4.669841e+01    7.559471e+03
  4.672129e+01    7.446705e+03
  4.674418e+01    7.375604e+03
  4.676706e+01    7.335576e+03
  4.678995e+01    7.340664e+03
  4.681283e+01    7.339576e+03
  4.683572e+01    7.343936e+03
  4.685860e+01    7.335910e+03
  4.688149e+01    7.338490e+03
  4.690437e+01    7.350622e+03
  4.692726e+01    7.362792e+03
  4.695014e+01    7.349034e+03
  4.697303e+01    7.333071e+03
  4.699592e+01    7.328997e+03
  4.701880e+01    7.318869e+03
  4.704169e+01    7.318492e+03
  4.706457e+01    7.303213e+03
  4.708746e+01    7.269842e+03
  4.711034e+01    7.257542e+03
  4.713323e+01    7.266174e+03
  4.715611e+01    7.220563e+03
  4.717900e+01    7.219104e+03
  4.720188e+01    7.214463e+03
  4.722477e+01    7.219370e+03
  4.724765e+01    7.230985e+03
  4.727054e+01    7.229664e+03
  4.729343e+01    7.240932e+03
  4.731631e+01    7.243502e+03
  4.733920e+01    7.253857e+03
  4.736208e+01    7.292338e+03
  4.738497e+01    7.355839e+03
  4.740785e+01    7.430437e+03
  4.743074e+01    7.517564e+03
  4.745362e+01    7.622274e+03
  4.747651e+01    7.830933e+03
  4.749939e+01    8.134461e+03
  4.752228e+01    8.472156e+03
  4.754516e+01    8.817824e+03
  4.756805e+01    8.967323e+03
  4.759094e+01    9.090920e+03
  4.761382e+01    8.987386e+03
  4.763671e+01    8.724842e+03
  4.765959e+01    8.413403e+03
  4.768248e+01    8.221554e+03
  4.770536e+01    8.075483e+03
  4.772825e+01    7.878249e+03
  4.775113e+01    7.903115e+03
  4.777402e+01    7.744572e+03
  4.779690e+01    7.738362e+03
  4.781979e+01    7.465751e+03
  4.784267e+01    7.204156e+03
  4.786556e+01    6.210057e+03
  4.788844e+01    3.019419e+03