File: Output/ROCK_XRD/WAM39B_integrated/rampe1/wam39b_rampe_1_xrd_000006_integrated.dat
# == pyFAI calibration ==
# Distance Sample to Detector: 0.261615 m
# PONI: 2.023e-01, 2.348e-01 m
# Rotations: -0.026380 0.002005 0.000000 rad
#
# == Fit2d calibration ==
# Distance Sample-beamCenter: 261.707 mm
# Center: x=6119.331, y=5134.776 pix
# Tilt: 1.516 deg  TiltPlanRot: 4.347 deg
#
# Detector Rayonix SX165	 PixelSize= 3.950e-05, 3.950e-05 m
#    Detector has a mask: True
#    Detector has a dark current: False
#    detector has a flat field: False
#
# Wavelength: 1.12713e-10 m
# Mask applied: from detector
# Dark current applied: False
# Flat field applied: False
# Polarization factor: None
# Normalization factor: 1.0
# --> ROCK\\WAM39B_integrated\wam39b_rampe_1_xrd_000006_integrated.dat
#       2th_deg             I
  2.502596e+01    5.076190e+03
  2.504885e+01    1.331601e+04
  2.507173e+01    1.790413e+04
  2.509462e+01    1.901534e+04
  2.511750e+01    2.078746e+04
  2.514039e+01    2.155195e+04
  2.516327e+01    2.148198e+04
  2.518616e+01    2.129656e+04
  2.520905e+01    2.115803e+04
  2.523193e+01    2.089484e+04
  2.525482e+01    2.098743e+04
  2.527770e+01    2.140679e+04
  2.530059e+01    2.133634e+04
  2.532347e+01    2.115029e+04
  2.534636e+01    2.099325e+04
  2.536924e+01    2.090415e+04
  2.539213e+01    2.090084e+04
  2.541501e+01    2.093647e+04
  2.543790e+01    2.099689e+04
  2.546078e+01    2.110510e+04
  2.548367e+01    2.113371e+04
  2.550656e+01    2.103675e+04
  2.552944e+01    2.102956e+04
  2.555233e+01    2.141884e+04
  2.557521e+01    2.172787e+04
  2.559810e+01    2.188292e+04
  2.562098e+01    2.215259e+04
  2.564387e+01    2.248466e+04
  2.566675e+01    2.281035e+04
  2.568964e+01    2.301033e+04
  2.571252e+01    2.318858e+04
  2.573541e+01    2.339912e+04
  2.575829e+01    2.349084e+04
  2.578118e+01    2.344991e+04
  2.580407e+01    2.342670e+04
  2.582695e+01    2.336100e+04
  2.584984e+01    2.318003e+04
  2.587272e+01    2.294362e+04
  2.589561e+01    2.276735e+04
  2.591849e+01    2.251761e+04
  2.594138e+01    2.232835e+04
  2.596426e+01    2.223367e+04
  2.598715e+01    2.206490e+04
  2.601003e+01    2.205057e+04
  2.603292e+01    2.200623e+04
  2.605580e+01    2.199023e+04
  2.607869e+01    2.203715e+04
  2.610157e+01    2.209501e+04
  2.612446e+01    2.219969e+04
  2.614735e+01    2.234701e+04
  2.617023e+01    2.251948e+04
  2.619312e+01    2.274118e+04
  2.621600e+01    2.303580e+04
  2.623889e+01    2.328598e+04
  2.626177e+01    2.363926e+04
  2.628466e+01    2.405319e+04
  2.630754e+01    2.457608e+04
  2.633043e+01    2.527888e+04
  2.635331e+01    2.627445e+04
  2.637620e+01    2.773547e+04
  2.639908e+01    2.966856e+04
  2.642197e+01    3.190323e+04
  2.644486e+01    3.388244e+04
  2.646774e+01    3.488257e+04
  2.649063e+01    3.417028e+04
  2.651351e+01    3.226543e+04
  2.653640e+01    2.988784e+04
  2.655928e+01    2.779663e+04
  2.658217e+01    2.625952e+04
  2.660505e+01    2.527135e+04
  2.662794e+01    2.467316e+04
  2.665082e+01    2.426631e+04
  2.667371e+01    2.401768e+04
  2.669659e+01    2.385119e+04
  2.671948e+01    2.372253e+04
  2.674237e+01    2.362611e+04
  2.676525e+01    2.352637e+04
  2.678814e+01    2.339831e+04
  2.681102e+01    2.327656e+04
  2.683391e+01    2.312089e+04
  2.685679e+01    2.296461e+04
  2.687968e+01    2.278434e+04
  2.690256e+01    2.250193e+04
  2.692545e+01    2.224960e+04
  2.694833e+01    2.194678e+04
  2.697122e+01    2.161799e+04
  2.699410e+01    2.129567e+04
  2.701699e+01    2.101460e+04
  2.703988e+01    2.067120e+04
  2.706276e+01    2.036401e+04
  2.708565e+01    2.010725e+04
  2.710853e+01    1.984574e+04
  2.713142e+01    1.960054e+04
  2.715430e+01    1.935697e+04
  2.717719e+01    1.913209e+04
  2.720007e+01    1.890661e+04
  2.722296e+01    1.871802e+04
  2.724584e+01    1.853027e+04
  2.726873e+01    1.840930e+04
  2.729161e+01    1.827648e+04
  2.731450e+01    1.815927e+04
  2.733738e+01    1.803308e+04
  2.736027e+01    1.791409e+04
  2.738316e+01    1.781706e+04
  2.740604e+01    1.772225e+04
  2.742893e+01    1.766427e+04
  2.745181e+01    1.762842e+04
  2.747470e+01    1.755466e+04
  2.749758e+01    1.748715e+04
  2.752047e+01    1.744294e+04
  2.754335e+01    1.741271e+04
  2.756624e+01    1.739836e+04
  2.758912e+01    1.737802e+04
  2.761201e+01    1.735478e+04
  2.763489e+01    1.733718e+04
  2.765778e+01    1.734513e+04
  2.768067e+01    1.735471e+04
  2.770355e+01    1.737642e+04
  2.772644e+01    1.737775e+04
  2.774932e+01    1.740007e+04
  2.777221e+01    1.746747e+04
  2.779509e+01    1.753379e+04
  2.781798e+01    1.764721e+04
  2.784086e+01    1.777420e+04
  2.786375e+01    1.793446e+04
  2.788663e+01    1.812035e+04
  2.790952e+01    1.833989e+04
  2.793240e+01    1.862778e+04
  2.795529e+01    1.897528e+04
  2.797818e+01    1.941975e+04
  2.800106e+01    2.001977e+04
  2.802395e+01    2.082953e+04
  2.804683e+01    2.184267e+04
  2.806972e+01    2.290236e+04
  2.809260e+01    2.367557e+04
  2.811549e+01    2.379961e+04
  2.813837e+01    2.316812e+04
  2.816126e+01    2.198212e+04
  2.818414e+01    2.065215e+04
  2.820703e+01    1.949602e+04
  2.822991e+01    1.859537e+04
  2.825280e+01    1.791767e+04
  2.827568e+01    1.740990e+04
  2.829857e+01    1.701106e+04
  2.832146e+01    1.668988e+04
  2.834434e+01    1.640590e+04
  2.836723e+01    1.616247e+04
  2.839011e+01    1.595121e+04
  2.841300e+01    1.575388e+04
  2.843588e+01    1.559278e+04
  2.845877e+01    1.544091e+04
  2.848165e+01    1.530161e+04
  2.850454e+01    1.519061e+04
  2.852742e+01    1.509662e+04
  2.855031e+01    1.501857e+04
  2.857319e+01    1.491941e+04
  2.859608e+01    1.483216e+04
  2.861897e+01    1.475712e+04
  2.864185e+01    1.466912e+04
  2.866474e+01    1.459619e+04
  2.868762e+01    1.450019e+04
  2.871051e+01    1.442758e+04
  2.873339e+01    1.435941e+04
  2.875628e+01    1.428509e+04
  2.877916e+01    1.422112e+04
  2.880205e+01    1.415474e+04
  2.882493e+01    1.410079e+04
  2.884782e+01    1.404224e+04
  2.887070e+01    1.397820e+04
  2.889359e+01    1.392298e+04
  2.891648e+01    1.386306e+04
  2.893936e+01    1.380676e+04
  2.896225e+01    1.375216e+04
  2.898513e+01    1.370004e+04
  2.900802e+01    1.365391e+04
  2.903090e+01    1.359611e+04
  2.905379e+01    1.352981e+04
  2.907667e+01    1.348429e+04
  2.909956e+01    1.343425e+04
  2.912244e+01    1.338651e+04
  2.914533e+01    1.333796e+04
  2.916821e+01    1.329384e+04
  2.919110e+01    1.325841e+04
  2.921398e+01    1.321462e+04
  2.923687e+01    1.317537e+04
  2.925976e+01    1.312957e+04
  2.928264e+01    1.309149e+04
  2.930553e+01    1.306844e+04
  2.932841e+01    1.303279e+04
  2.935130e+01    1.298861e+04
  2.937418e+01    1.295519e+04
  2.939707e+01    1.293822e+04
  2.941995e+01    1.290885e+04
  2.944284e+01    1.288452e+04
  2.946572e+01    1.289315e+04
  2.948861e+01    1.289361e+04
  2.951149e+01    1.292256e+04
  2.953438e+01    1.301260e+04
  2.955727e+01    1.315749e+04
  2.958015e+01    1.340083e+04
  2.960304e+01    1.376391e+04
  2.962592e+01    1.415764e+04
  2.964881e+01    1.447237e+04
  2.967169e+01    1.455176e+04
  2.969458e+01    1.434850e+04
  2.971746e+01    1.393466e+04
  2.974035e+01    1.347728e+04
  2.976323e+01    1.308426e+04
  2.978612e+01    1.280893e+04
  2.980900e+01    1.262402e+04
  2.983189e+01    1.249769e+04
  2.985478e+01    1.241343e+04
  2.987766e+01    1.234438e+04
  2.990055e+01    1.230385e+04
  2.992343e+01    1.227973e+04
  2.994632e+01    1.224861e+04
  2.996920e+01    1.222099e+04
  2.999209e+01    1.221084e+04
  3.001497e+01    1.220952e+04
  3.003786e+01    1.220102e+04
  3.006074e+01    1.218989e+04
  3.008363e+01    1.218384e+04
  3.010651e+01    1.218378e+04
  3.012940e+01    1.219741e+04
  3.015228e+01    1.219092e+04
  3.017517e+01    1.218898e+04
  3.019806e+01    1.220811e+04
  3.022094e+01    1.221009e+04
  3.024383e+01    1.221035e+04
  3.026671e+01    1.222188e+04
  3.028960e+01    1.223675e+04
  3.031248e+01    1.226343e+04
  3.033537e+01    1.230481e+04
  3.035825e+01    1.233694e+04
  3.038114e+01    1.237541e+04
  3.040402e+01    1.242007e+04
  3.042691e+01    1.246486e+04
  3.044979e+01    1.252458e+04
  3.047268e+01    1.259383e+04
  3.049557e+01    1.265796e+04
  3.051845e+01    1.272587e+04
  3.054134e+01    1.279118e+04
  3.056422e+01    1.288698e+04
  3.058711e+01    1.299958e+04
  3.060999e+01    1.310954e+04
  3.063288e+01    1.324089e+04
  3.065576e+01    1.339256e+04
  3.067865e+01    1.355767e+04
  3.070153e+01    1.374484e+04
  3.072442e+01    1.394716e+04
  3.074730e+01    1.417528e+04
  3.077019e+01    1.441965e+04
  3.079308e+01    1.469700e+04
  3.081596e+01    1.497896e+04
  3.083885e+01    1.529139e+04
  3.086173e+01    1.564258e+04
  3.088462e+01    1.602528e+04
  3.090750e+01    1.644390e+04
  3.093039e+01    1.691119e+04
  3.095327e+01    1.744148e+04
  3.097616e+01    1.810381e+04
  3.099904e+01    1.897912e+04
  3.102193e+01    2.022006e+04
  3.104481e+01    2.206316e+04
  3.106770e+01    2.478691e+04
  3.109059e+01    2.843676e+04
  3.111347e+01    3.246771e+04
  3.113636e+01    3.547066e+04
  3.115924e+01    3.609181e+04
  3.118213e+01    3.399953e+04
  3.120501e+01    3.002149e+04
  3.122790e+01    2.565940e+04
  3.125078e+01    2.206420e+04
  3.127367e+01    1.949124e+04
  3.129655e+01    1.774956e+04
  3.131944e+01    1.656348e+04
  3.134232e+01    1.570362e+04
  3.136521e+01    1.505459e+04
  3.138809e+01    1.454159e+04
  3.141098e+01    1.412362e+04
  3.143387e+01    1.377795e+04
  3.145675e+01    1.348734e+04
  3.147964e+01    1.322556e+04
  3.150252e+01    1.299241e+04
  3.152541e+01    1.279100e+04
  3.154829e+01    1.260022e+04
  3.157118e+01    1.244053e+04
  3.159406e+01    1.231047e+04
  3.161695e+01    1.219158e+04
  3.163983e+01    1.208012e+04
  3.166272e+01    1.198342e+04
  3.168560e+01    1.189152e+04
  3.170849e+01    1.181699e+04
  3.173138e+01    1.173670e+04
  3.175426e+01    1.165061e+04
  3.177715e+01    1.158213e+04
  3.180003e+01    1.152191e+04
  3.182292e+01    1.146291e+04
  3.184580e+01    1.140263e+04
  3.186869e+01    1.135151e+04
  3.189157e+01    1.130526e+04
  3.191446e+01    1.126720e+04
  3.193734e+01    1.122713e+04
  3.196023e+01    1.118727e+04
  3.198311e+01    1.114672e+04
  3.200600e+01    1.110428e+04
  3.202889e+01    1.106828e+04
  3.205177e+01    1.103255e+04
  3.207466e+01    1.099703e+04
  3.209754e+01    1.095531e+04
  3.212043e+01    1.092622e+04
  3.214331e+01    1.089640e+04
  3.216620e+01    1.086651e+04
  3.218908e+01    1.082397e+04
  3.221197e+01    1.078854e+04
  3.223485e+01    1.076433e+04
  3.225774e+01    1.075106e+04
  3.228062e+01    1.072789e+04
  3.230351e+01    1.070294e+04
  3.232639e+01    1.068220e+04
  3.234928e+01    1.066715e+04
  3.237217e+01    1.066974e+04
  3.239505e+01    1.066639e+04
  3.241794e+01    1.069181e+04
  3.244082e+01    1.075430e+04
  3.246371e+01    1.087810e+04
  3.248659e+01    1.108769e+04
  3.250948e+01    1.139532e+04
  3.253236e+01    1.176361e+04
  3.255525e+01    1.207316e+04
  3.257813e+01    1.217696e+04
  3.260102e+01    1.201405e+04
  3.262390e+01    1.164827e+04
  3.264679e+01    1.122597e+04
  3.266968e+01    1.085912e+04
  3.269256e+01    1.059131e+04
  3.271545e+01    1.041944e+04
  3.273833e+01    1.030684e+04
  3.276122e+01    1.022225e+04
  3.278410e+01    1.015888e+04
  3.280699e+01    1.011789e+04
  3.282987e+01    1.008988e+04
  3.285276e+01    1.005482e+04
  3.287564e+01    1.001711e+04
  3.289853e+01    9.994774e+03
  3.292141e+01    9.961521e+03
  3.294430e+01    9.945143e+03
  3.296719e+01    9.928565e+03
  3.299007e+01    9.900430e+03
  3.301296e+01    9.882302e+03
  3.303584e+01    9.873394e+03
  3.305873e+01    9.854317e+03
  3.308161e+01    9.835561e+03
  3.310450e+01    9.823944e+03
  3.312738e+01    9.813950e+03
  3.315027e+01    9.803953e+03
  3.317315e+01    9.784518e+03
  3.319604e+01    9.770195e+03
  3.321892e+01    9.764908e+03
  3.324181e+01    9.754437e+03
  3.326469e+01    9.750521e+03
  3.328758e+01    9.750767e+03
  3.331047e+01    9.752879e+03
  3.333335e+01    9.745648e+03
  3.335624e+01    9.740153e+03
  3.337912e+01    9.741477e+03
  3.340201e+01    9.739919e+03
  3.342489e+01    9.741676e+03
  3.344778e+01    9.733460e+03
  3.347066e+01    9.731585e+03
  3.349355e+01    9.738526e+03
  3.351643e+01    9.738482e+03
  3.353932e+01    9.739021e+03
  3.356220e+01    9.750081e+03
  3.358509e+01    9.761518e+03
  3.360798e+01    9.785823e+03
  3.363086e+01    9.826273e+03
  3.365375e+01    9.881852e+03
  3.367663e+01    9.946439e+03
  3.369952e+01    1.003671e+04
  3.372240e+01    1.016581e+04
  3.374529e+01    1.034913e+04
  3.376817e+01    1.064071e+04
  3.379106e+01    1.110885e+04
  3.381394e+01    1.188193e+04
  3.383683e+01    1.312866e+04
  3.385971e+01    1.510361e+04
  3.388260e+01    1.788366e+04
  3.390549e+01    2.100122e+04
  3.392837e+01    2.338538e+04
  3.395126e+01    2.401714e+04
  3.397414e+01    2.266554e+04
  3.399703e+01    1.989207e+04
  3.401991e+01    1.682515e+04
  3.404280e+01    1.431792e+04
  3.406568e+01    1.259555e+04
  3.408857e+01    1.152492e+04
  3.411145e+01    1.088157e+04
  3.413434e+01    1.047378e+04
  3.415722e+01    1.021604e+04
  3.418011e+01    1.004709e+04
  3.420300e+01    9.912931e+03
  3.422588e+01    9.819259e+03
  3.424877e+01    9.761868e+03
  3.427165e+01    9.711230e+03
  3.429454e+01    9.658419e+03
  3.431742e+01    9.622336e+03
  3.434031e+01    9.588237e+03
  3.436319e+01    9.557430e+03
  3.438608e+01    9.523482e+03
  3.440896e+01    9.492244e+03
  3.443185e+01    9.453879e+03
  3.445473e+01    9.419541e+03
  3.447762e+01    9.381442e+03
  3.450050e+01    9.345770e+03
  3.452339e+01    9.310239e+03
  3.454628e+01    9.284778e+03
  3.456916e+01    9.260476e+03
  3.459205e+01    9.239083e+03
  3.461493e+01    9.210975e+03
  3.463782e+01    9.185151e+03
  3.466070e+01    9.164177e+03
  3.468359e+01    9.149104e+03
  3.470647e+01    9.139154e+03
  3.472936e+01    9.129028e+03
  3.475224e+01    9.113958e+03
  3.477513e+01    9.113640e+03
  3.479801e+01    9.106812e+03
  3.482090e+01    9.108179e+03
  3.484379e+01    9.101506e+03
  3.486667e+01    9.110922e+03
  3.488956e+01    9.119901e+03
  3.491244e+01    9.127324e+03
  3.493533e+01    9.140996e+03
  3.495821e+01    9.152959e+03
  3.498110e+01    9.177211e+03
  3.500398e+01    9.207831e+03
  3.502687e+01    9.240355e+03
  3.504975e+01    9.280153e+03
  3.507264e+01    9.312021e+03
  3.509552e+01    9.330502e+03
  3.511841e+01    9.353432e+03
  3.514130e+01    9.358440e+03
  3.516418e+01    9.352673e+03
  3.518707e+01    9.333699e+03
  3.520995e+01    9.303168e+03
  3.523284e+01    9.261129e+03
  3.525572e+01    9.207644e+03
  3.527861e+01    9.153731e+03
  3.530149e+01    9.105948e+03
  3.532438e+01    9.053676e+03
  3.534726e+01    9.007555e+03
  3.537015e+01    8.960380e+03
  3.539303e+01    8.910446e+03
  3.541592e+01    8.869760e+03
  3.543880e+01    8.834214e+03
  3.546169e+01    8.796408e+03
  3.548458e+01    8.768096e+03
  3.550746e+01    8.747979e+03
  3.553035e+01    8.723738e+03
  3.555323e+01    8.689017e+03
  3.557612e+01    8.661696e+03
  3.559900e+01    8.640537e+03
  3.562189e+01    8.625550e+03
  3.564477e+01    8.599887e+03
  3.566766e+01    8.578936e+03
  3.569054e+01    8.565852e+03
  3.571343e+01    8.552651e+03
  3.573631e+01    8.540534e+03
  3.575920e+01    8.531768e+03
  3.578209e+01    8.529936e+03
  3.580497e+01    8.520417e+03
  3.582786e+01    8.507095e+03
  3.585074e+01    8.498849e+03
  3.587363e+01    8.496711e+03
  3.589651e+01    8.490253e+03
  3.591940e+01    8.486395e+03
  3.594228e+01    8.482555e+03
  3.596517e+01    8.489975e+03
  3.598805e+01    8.493589e+03
  3.601094e+01    8.496490e+03
  3.603382e+01    8.493360e+03
  3.605671e+01    8.492921e+03
  3.607960e+01    8.499557e+03
  3.610248e+01    8.508254e+03
  3.612537e+01    8.509706e+03
  3.614825e+01    8.521634e+03
  3.617114e+01    8.532175e+03
  3.619402e+01    8.549390e+03
  3.621691e+01    8.570095e+03
  3.623979e+01    8.580684e+03
  3.626268e+01    8.604034e+03
  3.628556e+01    8.641919e+03
  3.630845e+01    8.690148e+03
  3.633133e+01    8.749397e+03
  3.635422e+01    8.843820e+03
  3.637710e+01    8.987321e+03
  3.639999e+01    9.211808e+03
  3.642288e+01    9.576685e+03
  3.644576e+01    1.016509e+04
  3.646865e+01    1.109002e+04
  3.649153e+01    1.229292e+04
  3.651442e+01    1.347747e+04
  3.653730e+01    1.421186e+04
  3.656019e+01    1.417234e+04
  3.658307e+01    1.339912e+04
  3.660596e+01    1.221520e+04
  3.662884e+01    1.105322e+04
  3.665173e+01    1.017206e+04
  3.667461e+01    9.601990e+03
  3.669750e+01    9.253913e+03
  3.672039e+01    9.045504e+03
  3.674327e+01    8.912639e+03
  3.676616e+01    8.826325e+03
  3.678904e+01    8.773121e+03
  3.681193e+01    8.741367e+03
  3.683481e+01    8.718108e+03
  3.685770e+01    8.697117e+03
  3.688058e+01    8.701428e+03
  3.690347e+01    8.690420e+03
  3.692635e+01    8.686514e+03
  3.694924e+01    8.687819e+03
  3.697212e+01    8.695459e+03
  3.699501e+01    8.705626e+03
  3.701790e+01    8.709678e+03
  3.704078e+01    8.718667e+03
  3.706367e+01    8.732254e+03
  3.708655e+01    8.749282e+03
  3.710944e+01    8.773938e+03
  3.713232e+01    8.793050e+03
  3.715521e+01    8.831890e+03
  3.717809e+01    8.866331e+03
  3.720098e+01    8.902892e+03
  3.722386e+01    8.957663e+03
  3.724675e+01    8.995811e+03
  3.726963e+01    9.046389e+03
  3.729252e+01    9.107241e+03
  3.731541e+01    9.161643e+03
  3.733829e+01    9.224455e+03
  3.736118e+01    9.305988e+03
  3.738406e+01    9.408091e+03
  3.740695e+01    9.532354e+03
  3.742983e+01    9.671002e+03
  3.745272e+01    9.842902e+03
  3.747560e+01    1.006211e+04
  3.749849e+01    1.035087e+04
  3.752137e+01    1.072788e+04
  3.754426e+01    1.121823e+04
  3.756714e+01    1.188820e+04
  3.759003e+01    1.284907e+04
  3.761291e+01    1.429918e+04
  3.763580e+01    1.662855e+04
  3.765869e+01    2.046399e+04
  3.768157e+01    2.680262e+04
  3.770446e+01    3.676814e+04
  3.772734e+01    5.048811e+04
  3.775023e+01    6.515642e+04
  3.777311e+01    7.535359e+04
  3.779600e+01    7.698424e+04
  3.781888e+01    6.953198e+04
  3.784177e+01    5.609947e+04
  3.786465e+01    4.176580e+04
  3.788754e+01    3.035451e+04
  3.791042e+01    2.274565e+04
  3.793331e+01    1.807656e+04
  3.795620e+01    1.523680e+04
  3.797908e+01    1.343601e+04
  3.800197e+01    1.227115e+04
  3.802485e+01    1.148680e+04
  3.804774e+01    1.092863e+04
  3.807062e+01    1.052123e+04
  3.809351e+01    1.022038e+04
  3.811639e+01    9.980250e+03
  3.813928e+01    9.776153e+03
  3.816216e+01    9.617629e+03
  3.818505e+01    9.497271e+03
  3.820793e+01    9.381168e+03
  3.823082e+01    9.284317e+03
  3.825371e+01    9.221658e+03
  3.827659e+01    9.168026e+03
  3.829948e+01    9.122584e+03
  3.832236e+01    9.078145e+03
  3.834525e+01    9.032847e+03
  3.836813e+01    9.002971e+03
  3.839102e+01    8.974300e+03
  3.841390e+01    8.949842e+03
  3.843679e+01    8.928713e+03
  3.845967e+01    8.918241e+03
  3.848256e+01    8.898814e+03
  3.850544e+01    8.882736e+03
  3.852833e+01    8.871827e+03
  3.855121e+01    8.856347e+03
  3.857410e+01    8.834465e+03
  3.859699e+01    8.819851e+03
  3.861987e+01    8.807407e+03
  3.864276e+01    8.796339e+03
  3.866564e+01    8.784622e+03
  3.868853e+01    8.778683e+03
  3.871141e+01    8.774286e+03
  3.873430e+01    8.777904e+03
  3.875718e+01    8.790920e+03
  3.878007e+01    8.809150e+03
  3.880295e+01    8.824168e+03
  3.882584e+01    8.879797e+03
  3.884872e+01    8.973605e+03
  3.887161e+01    9.141494e+03
  3.889450e+01    9.419725e+03
  3.891738e+01    9.849305e+03
  3.894027e+01    1.041244e+04
  3.896315e+01    1.095473e+04
  3.898604e+01    1.126882e+04
  3.900892e+01    1.122905e+04
  3.903181e+01    1.084589e+04
  3.905469e+01    1.027619e+04
  3.907758e+01    9.728634e+03
  3.910046e+01    9.322528e+03
  3.912335e+01    9.055382e+03
  3.914623e+01    8.884208e+03
  3.916912e+01    8.773422e+03
  3.919201e+01    8.717544e+03
  3.921489e+01    8.661139e+03
  3.923778e+01    8.623437e+03
  3.926066e+01    8.602554e+03
  3.928355e+01    8.587040e+03
  3.930643e+01    8.576656e+03
  3.932932e+01    8.554289e+03
  3.935220e+01    8.546273e+03
  3.937509e+01    8.542386e+03
  3.939797e+01    8.537676e+03
  3.942086e+01    8.531283e+03
  3.944374e+01    8.509105e+03
  3.946663e+01    8.500861e+03
  3.948951e+01    8.496287e+03
  3.951240e+01    8.488251e+03
  3.953529e+01    8.478281e+03
  3.955817e+01    8.482767e+03
  3.958106e+01    8.478139e+03
  3.960394e+01    8.468154e+03
  3.962683e+01    8.458001e+03
  3.964971e+01    8.458194e+03
  3.967260e+01    8.452361e+03
  3.969548e+01    8.450830e+03
  3.971837e+01    8.441537e+03
  3.974125e+01    8.431640e+03
  3.976414e+01    8.423140e+03
  3.978702e+01    8.423221e+03
  3.980991e+01    8.417282e+03
  3.983280e+01    8.420273e+03
  3.985568e+01    8.425013e+03
  3.987857e+01    8.436800e+03
  3.990145e+01    8.457766e+03
  3.992434e+01    8.451107e+03
  3.994722e+01    8.452108e+03
  3.997011e+01    8.459070e+03
  3.999299e+01    8.463900e+03
  4.001588e+01    8.480236e+03
  4.003876e+01    8.519538e+03
  4.006165e+01    8.593028e+03
  4.008453e+01    8.698488e+03
  4.010742e+01    8.840780e+03
  4.013031e+01    8.995391e+03
  4.015319e+01    9.108127e+03
  4.017608e+01    9.140731e+03
  4.019896e+01    9.077897e+03
  4.022185e+01    8.951611e+03
  4.024473e+01    8.826945e+03
  4.026762e+01    8.733986e+03
  4.029050e+01    8.674552e+03
  4.031339e+01    8.646509e+03
  4.033627e+01    8.637258e+03
  4.035916e+01    8.649105e+03
  4.038204e+01    8.667849e+03
  4.040493e+01    8.691271e+03
  4.042782e+01    8.715641e+03
  4.045070e+01    8.739877e+03
  4.047359e+01    8.759199e+03
  4.049647e+01    8.763739e+03
  4.051936e+01    8.775921e+03
  4.054224e+01    8.781224e+03
  4.056513e+01    8.767004e+03
  4.058801e+01    8.748340e+03
  4.061090e+01    8.735580e+03
  4.063378e+01    8.712593e+03
  4.065667e+01    8.678917e+03
  4.067955e+01    8.638548e+03
  4.070244e+01    8.603265e+03
  4.072532e+01    8.572943e+03
  4.074821e+01    8.540356e+03
  4.077110e+01    8.508186e+03
  4.079398e+01    8.485682e+03
  4.081687e+01    8.457983e+03
  4.083975e+01    8.443411e+03
  4.086264e+01    8.425839e+03
  4.088552e+01    8.408543e+03
  4.090841e+01    8.393971e+03
  4.093129e+01    8.393166e+03
  4.095418e+01    8.404056e+03
  4.097706e+01    8.404060e+03
  4.099995e+01    8.416565e+03
  4.102283e+01    8.430309e+03
  4.104572e+01    8.464148e+03
  4.106861e+01    8.506050e+03
  4.109149e+01    8.567602e+03
  4.111438e+01    8.671331e+03
  4.113726e+01    8.819534e+03
  4.116015e+01    9.061844e+03
  4.118303e+01    9.443141e+03
  4.120592e+01    1.007363e+04
  4.122880e+01    1.108633e+04
  4.125169e+01    1.251676e+04
  4.127457e+01    1.413081e+04
  4.129746e+01    1.536423e+04
  4.132034e+01    1.570747e+04
  4.134323e+01    1.508047e+04
  4.136612e+01    1.373948e+04
  4.138900e+01    1.217038e+04
  4.141189e+01    1.086453e+04
  4.143477e+01    9.976479e+03
  4.145766e+01    9.433568e+03
  4.148054e+01    9.107438e+03
  4.150343e+01    8.920451e+03
  4.152631e+01    8.801704e+03
  4.154920e+01    8.732801e+03
  4.157208e+01    8.684479e+03
  4.159497e+01    8.666413e+03
  4.161785e+01    8.653270e+03
  4.164074e+01    8.639037e+03
  4.166362e+01    8.620595e+03
  4.168651e+01    8.605676e+03
  4.170940e+01    8.587612e+03
  4.173228e+01    8.566112e+03
  4.175517e+01    8.534991e+03
  4.177805e+01    8.504621e+03
  4.180094e+01    8.475157e+03
  4.182382e+01    8.458612e+03
  4.184671e+01    8.442919e+03
  4.186959e+01    8.432284e+03
  4.189248e+01    8.418100e+03
  4.191536e+01    8.405158e+03
  4.193825e+01    8.395624e+03
  4.196113e+01    8.388077e+03
  4.198402e+01    8.387449e+03
  4.200691e+01    8.384530e+03
  4.202979e+01    8.389992e+03
  4.205268e+01    8.390983e+03
  4.207556e+01    8.394059e+03
  4.209845e+01    8.388175e+03
  4.212133e+01    8.387479e+03
  4.214422e+01    8.389832e+03
  4.216710e+01    8.392409e+03
  4.218999e+01    8.406098e+03
  4.221287e+01    8.422442e+03
  4.223576e+01    8.436809e+03
  4.225864e+01    8.469650e+03
  4.228153e+01    8.513088e+03
  4.230442e+01    8.595567e+03
  4.232730e+01    8.736104e+03
  4.235019e+01    8.961251e+03
  4.237307e+01    9.282854e+03
  4.239596e+01    9.628721e+03
  4.241884e+01    9.878105e+03
  4.244173e+01    9.927160e+03
  4.246461e+01    9.760219e+03
  4.248750e+01    9.434316e+03
  4.251038e+01    9.077518e+03
  4.253327e+01    8.764934e+03
  4.255615e+01    8.545787e+03
  4.257904e+01    8.403825e+03
  4.260192e+01    8.311544e+03
  4.262481e+01    8.250691e+03
  4.264770e+01    8.212068e+03
  4.267058e+01    8.174289e+03
  4.269347e+01    8.147428e+03
  4.271635e+01    8.129585e+03
  4.273924e+01    8.107943e+03
  4.276212e+01    8.088440e+03
  4.278501e+01    8.072977e+03
  4.280789e+01    8.061993e+03
  4.283078e+01    8.039104e+03
  4.285366e+01    8.039695e+03
  4.287655e+01    8.026395e+03
  4.289943e+01    8.022411e+03
  4.292232e+01    8.019158e+03
  4.294521e+01    8.023289e+03
  4.296809e+01    8.024075e+03
  4.299098e+01    8.013572e+03
  4.301386e+01    8.014288e+03
  4.303675e+01    8.014195e+03
  4.305963e+01    8.013022e+03
  4.308252e+01    8.012069e+03
  4.310540e+01    8.027506e+03
  4.312829e+01    8.033157e+03
  4.315117e+01    8.050353e+03
  4.317406e+01    8.063408e+03
  4.319694e+01    8.080987e+03
  4.321983e+01    8.098415e+03
  4.324272e+01    8.130798e+03
  4.326560e+01    8.174992e+03
  4.328849e+01    8.221683e+03
  4.331137e+01    8.293997e+03
  4.333426e+01    8.390226e+03
  4.335714e+01    8.536396e+03
  4.338003e+01    8.758898e+03
  4.340291e+01    9.128895e+03
  4.342580e+01    9.709673e+03
  4.344868e+01    1.060098e+04
  4.347157e+01    1.186983e+04
  4.349445e+01    1.324624e+04
  4.351734e+01    1.422037e+04
  4.354022e+01    1.440309e+04
  4.356311e+01    1.379423e+04
  4.358600e+01    1.261477e+04
  4.360888e+01    1.131398e+04
  4.363177e+01    1.027733e+04
  4.365465e+01    9.575684e+03
  4.367754e+01    9.154289e+03
  4.370042e+01    8.922733e+03
  4.372331e+01    8.786756e+03
  4.374619e+01    8.727970e+03
  4.376908e+01    8.714678e+03
  4.379196e+01    8.707196e+03
  4.381485e+01    8.742204e+03
  4.383773e+01    8.779094e+03
  4.386062e+01    8.810450e+03
  4.388351e+01    8.870238e+03
  4.390639e+01    8.940841e+03
  4.392928e+01    8.997883e+03
  4.395216e+01    9.047753e+03
  4.397505e+01    9.105137e+03
  4.399793e+01    9.146487e+03
  4.402082e+01    9.197635e+03
  4.404370e+01    9.248564e+03
  4.406659e+01    9.281648e+03
  4.408947e+01    9.324122e+03
  4.411236e+01    9.406025e+03
  4.413524e+01    9.489174e+03
  4.415813e+01    9.570182e+03
  4.418102e+01    9.679628e+03
  4.420390e+01    9.809562e+03
  4.422679e+01    9.927985e+03
  4.424967e+01    1.005986e+04
  4.427256e+01    1.022643e+04
  4.429544e+01    1.041327e+04
  4.431833e+01    1.061490e+04
  4.434121e+01    1.084188e+04
  4.436410e+01    1.113297e+04
  4.438698e+01    1.147917e+04
  4.440987e+01    1.193373e+04
  4.443275e+01    1.257413e+04
  4.445564e+01    1.353265e+04
  4.447853e+01    1.505376e+04
  4.450141e+01    1.750198e+04
  4.452430e+01    2.129724e+04
  4.454718e+01    2.648039e+04
  4.457007e+01    3.192359e+04
  4.459295e+01    3.563079e+04
  4.461584e+01    3.602898e+04
  4.463872e+01    3.315934e+04
  4.466161e+01    2.810251e+04
  4.468449e+01    2.263194e+04
  4.470738e+01    1.822371e+04
  4.473026e+01    1.523822e+04
  4.475315e+01    1.335008e+04
  4.477603e+01    1.214265e+04
  4.479892e+01    1.133857e+04
  4.482181e+01    1.080038e+04
  4.484469e+01    1.038924e+04
  4.486758e+01    1.006951e+04
  4.489046e+01    9.816736e+03
  4.491335e+01    9.614716e+03
  4.493623e+01    9.466041e+03
  4.495912e+01    9.311246e+03
  4.498200e+01    9.189740e+03
  4.500489e+01    9.070618e+03
  4.502777e+01    8.959097e+03
  4.505066e+01    8.872768e+03
  4.507354e+01    8.808995e+03
  4.509643e+01    8.738555e+03
  4.511932e+01    8.665681e+03
  4.514220e+01    8.610159e+03
  4.516509e+01    8.556021e+03
  4.518797e+01    8.515574e+03
  4.521086e+01    8.478087e+03
  4.523374e+01    8.441487e+03
  4.525663e+01    8.416571e+03
  4.527951e+01    8.396802e+03
  4.530240e+01    8.386359e+03
  4.532528e+01    8.375376e+03
  4.534817e+01    8.382757e+03
  4.537105e+01    8.401240e+03
  4.539394e+01    8.419259e+03
  4.541683e+01    8.457127e+03
  4.543971e+01    8.521298e+03
  4.546260e+01    8.623854e+03
  4.548548e+01    8.798723e+03
  4.550837e+01    9.060559e+03
  4.553125e+01    9.483930e+03
  4.555414e+01    1.018237e+04
  4.557702e+01    1.126457e+04
  4.559991e+01    1.275753e+04
  4.562279e+01    1.433001e+04
  4.564568e+01    1.542955e+04
  4.566856e+01    1.557718e+04
  4.569145e+01    1.479966e+04
  4.571433e+01    1.337546e+04
  4.573722e+01    1.179483e+04
  4.576011e+01    1.054293e+04
  4.578299e+01    9.709321e+03
  4.580588e+01    9.177524e+03
  4.582876e+01    8.832915e+03
  4.585165e+01    8.627206e+03
  4.587453e+01    8.482117e+03
  4.589742e+01    8.385933e+03
  4.592030e+01    8.309887e+03
  4.594319e+01    8.272231e+03
  4.596607e+01    8.224783e+03
  4.598896e+01    8.189653e+03
  4.601184e+01    8.163691e+03
  4.603473e+01    8.132791e+03
  4.605762e+01    8.134715e+03
  4.608050e+01    8.112783e+03
  4.610339e+01    8.083146e+03
  4.612627e+01    8.097263e+03
  4.614916e+01    8.075543e+03
  4.617204e+01    8.063995e+03
  4.619493e+01    8.060095e+03
  4.621781e+01    8.053499e+03
  4.624070e+01    8.043240e+03
  4.626358e+01    8.047789e+03
  4.628647e+01    8.041312e+03
  4.630935e+01    8.020660e+03
  4.633224e+01    8.030028e+03
  4.635513e+01    8.019576e+03
  4.637801e+01    8.019165e+03
  4.640090e+01    8.024638e+03
  4.642378e+01    8.019764e+03
  4.644667e+01    8.030477e+03
  4.646955e+01    8.042602e+03
  4.649244e+01    8.080510e+03
  4.651532e+01    8.124632e+03
  4.653821e+01    8.203037e+03
  4.656109e+01    8.319969e+03
  4.658398e+01    8.518270e+03
  4.660686e+01    8.822966e+03
  4.662975e+01    9.255445e+03
  4.665263e+01    9.751195e+03
  4.667552e+01    1.010100e+04
  4.669841e+01    1.018469e+04
  4.672129e+01    9.987239e+03
  4.674418e+01    9.592949e+03
  4.676706e+01    9.134718e+03
  4.678995e+01    8.776663e+03
  4.681283e+01    8.536424e+03
  4.683572e+01    8.381333e+03
  4.685860e+01    8.279652e+03
  4.688149e+01    8.236154e+03
  4.690437e+01    8.205146e+03
  4.692726e+01    8.198771e+03
  4.695014e+01    8.199274e+03
  4.697303e+01    8.181090e+03
  4.699592e+01    8.201378e+03
  4.701880e+01    8.219937e+03
  4.704169e+01    8.236027e+03
  4.706457e+01    8.251511e+03
  4.708746e+01    8.247639e+03
  4.711034e+01    8.248098e+03
  4.713323e+01    8.253786e+03
  4.715611e+01    8.218327e+03
  4.717900e+01    8.192107e+03
  4.720188e+01    8.170163e+03
  4.722477e+01    8.158470e+03
  4.724765e+01    8.157944e+03
  4.727054e+01    8.136848e+03
  4.729343e+01    8.144721e+03
  4.731631e+01    8.139909e+03
  4.733920e+01    8.124334e+03
  4.736208e+01    8.143097e+03
  4.738497e+01    8.188067e+03
  4.740785e+01    8.225951e+03
  4.743074e+01    8.260619e+03
  4.745362e+01    8.275021e+03
  4.747651e+01    8.352829e+03
  4.749939e+01    8.435393e+03
  4.752228e+01    8.518146e+03
  4.754516e+01    8.628546e+03
  4.756805e+01    8.698623e+03
  4.759094e+01    8.954269e+03
  4.761382e+01    9.263370e+03
  4.763671e+01    9.597468e+03
  4.765959e+01    9.911386e+03
  4.768248e+01    1.018828e+04
  4.770536e+01    1.023073e+04
  4.772825e+01    9.952933e+03
  4.775113e+01    9.764269e+03
  4.777402e+01    9.272229e+03
  4.779690e+01    9.001537e+03
  4.781979e+01    8.516947e+03
  4.784267e+01    8.102285e+03
  4.786556e+01    6.911461e+03
  4.788844e+01    3.348531e+03