File: Output/ROCK_XRD/WAM39B_integrated/rampe1/wam39b_rampe_1_xrd_000024_integrated.dat
# == pyFAI calibration ==
# Distance Sample to Detector: 0.261615 m
# PONI: 2.023e-01, 2.348e-01 m
# Rotations: -0.026380 0.002005 0.000000 rad
#
# == Fit2d calibration ==
# Distance Sample-beamCenter: 261.707 mm
# Center: x=6119.331, y=5134.776 pix
# Tilt: 1.516 deg  TiltPlanRot: 4.347 deg
#
# Detector Rayonix SX165	 PixelSize= 3.950e-05, 3.950e-05 m
#    Detector has a mask: True
#    Detector has a dark current: False
#    detector has a flat field: False
#
# Wavelength: 1.12713e-10 m
# Mask applied: from detector
# Dark current applied: False
# Flat field applied: False
# Polarization factor: None
# Normalization factor: 1.0
# --> ROCK\\WAM39B_integrated\wam39b_rampe_1_xrd_000024_integrated.dat
#       2th_deg             I
  2.502596e+01    4.551372e+03
  2.504885e+01    1.194459e+04
  2.507173e+01    1.607270e+04
  2.509462e+01    1.705243e+04
  2.511750e+01    1.864299e+04
  2.514039e+01    1.931513e+04
  2.516327e+01    1.921247e+04
  2.518616e+01    1.902725e+04
  2.520905e+01    1.891359e+04
  2.523193e+01    1.869103e+04
  2.525482e+01    1.875836e+04
  2.527770e+01    1.911400e+04
  2.530059e+01    1.905078e+04
  2.532347e+01    1.887512e+04
  2.534636e+01    1.872326e+04
  2.536924e+01    1.865596e+04
  2.539213e+01    1.867794e+04
  2.541501e+01    1.872344e+04
  2.543790e+01    1.880546e+04
  2.546078e+01    1.894699e+04
  2.548367e+01    1.906609e+04
  2.550656e+01    1.910314e+04
  2.552944e+01    1.921808e+04
  2.555233e+01    1.966019e+04
  2.557521e+01    1.991156e+04
  2.559810e+01    1.993157e+04
  2.562098e+01    2.002217e+04
  2.564387e+01    2.021372e+04
  2.566675e+01    2.047486e+04
  2.568964e+01    2.066366e+04
  2.571252e+01    2.077551e+04
  2.573541e+01    2.075571e+04
  2.575829e+01    2.046698e+04
  2.578118e+01    1.998221e+04
  2.580407e+01    1.954550e+04
  2.582695e+01    1.918311e+04
  2.584984e+01    1.888552e+04
  2.587272e+01    1.867769e+04
  2.589561e+01    1.860857e+04
  2.591849e+01    1.851534e+04
  2.594138e+01    1.849738e+04
  2.596426e+01    1.858797e+04
  2.598715e+01    1.860806e+04
  2.601003e+01    1.876504e+04
  2.603292e+01    1.891692e+04
  2.605580e+01    1.909697e+04
  2.607869e+01    1.938358e+04
  2.610157e+01    1.972283e+04
  2.612446e+01    2.015927e+04
  2.614735e+01    2.070714e+04
  2.617023e+01    2.137303e+04
  2.619312e+01    2.227925e+04
  2.621600e+01    2.356713e+04
  2.623889e+01    2.525619e+04
  2.626177e+01    2.760937e+04
  2.628466e+01    3.049887e+04
  2.630754e+01    3.347120e+04
  2.633043e+01    3.583102e+04
  2.635331e+01    3.716122e+04
  2.637620e+01    3.757459e+04
  2.639908e+01    3.749107e+04
  2.642197e+01    3.720710e+04
  2.644486e+01    3.654364e+04
  2.646774e+01    3.524264e+04
  2.649063e+01    3.306870e+04
  2.651351e+01    3.064941e+04
  2.653640e+01    2.825788e+04
  2.655928e+01    2.614654e+04
  2.658217e+01    2.438612e+04
  2.660505e+01    2.294761e+04
  2.662794e+01    2.176980e+04
  2.665082e+01    2.074641e+04
  2.667371e+01    1.990231e+04
  2.669659e+01    1.922157e+04
  2.671948e+01    1.865729e+04
  2.674237e+01    1.820123e+04
  2.676525e+01    1.782402e+04
  2.678814e+01    1.751172e+04
  2.681102e+01    1.727841e+04
  2.683391e+01    1.705922e+04
  2.685679e+01    1.688809e+04
  2.687968e+01    1.675542e+04
  2.690256e+01    1.658344e+04
  2.692545e+01    1.646219e+04
  2.694833e+01    1.634409e+04
  2.697122e+01    1.623713e+04
  2.699410e+01    1.615030e+04
  2.701699e+01    1.610727e+04
  2.703988e+01    1.601711e+04
  2.706276e+01    1.594329e+04
  2.708565e+01    1.589662e+04
  2.710853e+01    1.583350e+04
  2.713142e+01    1.576920e+04
  2.715430e+01    1.571517e+04
  2.717719e+01    1.566438e+04
  2.720007e+01    1.559387e+04
  2.722296e+01    1.554777e+04
  2.724584e+01    1.550278e+04
  2.726873e+01    1.548355e+04
  2.729161e+01    1.544109e+04
  2.731450e+01    1.539914e+04
  2.733738e+01    1.534825e+04
  2.736027e+01    1.530072e+04
  2.738316e+01    1.526947e+04
  2.740604e+01    1.523755e+04
  2.742893e+01    1.522704e+04
  2.745181e+01    1.522694e+04
  2.747470e+01    1.520052e+04
  2.749758e+01    1.518134e+04
  2.752047e+01    1.516880e+04
  2.754335e+01    1.517194e+04
  2.756624e+01    1.519477e+04
  2.758912e+01    1.520814e+04
  2.761201e+01    1.522429e+04
  2.763489e+01    1.526578e+04
  2.765778e+01    1.532992e+04
  2.768067e+01    1.541790e+04
  2.770355e+01    1.554098e+04
  2.772644e+01    1.567858e+04
  2.774932e+01    1.587059e+04
  2.777221e+01    1.615560e+04
  2.779509e+01    1.655421e+04
  2.781798e+01    1.713538e+04
  2.784086e+01    1.790651e+04
  2.786375e+01    1.891009e+04
  2.788663e+01    2.007112e+04
  2.790952e+01    2.123174e+04
  2.793240e+01    2.212790e+04
  2.795529e+01    2.240219e+04
  2.797818e+01    2.187889e+04
  2.800106e+01    2.068106e+04
  2.802395e+01    1.918350e+04
  2.804683e+01    1.777632e+04
  2.806972e+01    1.666879e+04
  2.809260e+01    1.588279e+04
  2.811549e+01    1.534297e+04
  2.813837e+01    1.497102e+04
  2.816126e+01    1.470000e+04
  2.818414e+01    1.449387e+04
  2.820703e+01    1.432863e+04
  2.822991e+01    1.418550e+04
  2.825280e+01    1.407706e+04
  2.827568e+01    1.399551e+04
  2.829857e+01    1.391386e+04
  2.832146e+01    1.384059e+04
  2.834434e+01    1.376614e+04
  2.836723e+01    1.370254e+04
  2.839011e+01    1.364398e+04
  2.841300e+01    1.358057e+04
  2.843588e+01    1.352973e+04
  2.845877e+01    1.346650e+04
  2.848165e+01    1.341350e+04
  2.850454e+01    1.337996e+04
  2.852742e+01    1.335415e+04
  2.855031e+01    1.333450e+04
  2.857319e+01    1.327875e+04
  2.859608e+01    1.322194e+04
  2.861897e+01    1.318007e+04
  2.864185e+01    1.313812e+04
  2.866474e+01    1.310285e+04
  2.868762e+01    1.303697e+04
  2.871051e+01    1.298945e+04
  2.873339e+01    1.295075e+04
  2.875628e+01    1.290123e+04
  2.877916e+01    1.284798e+04
  2.880205e+01    1.279425e+04
  2.882493e+01    1.276221e+04
  2.884782e+01    1.271979e+04
  2.887070e+01    1.267278e+04
  2.889359e+01    1.263146e+04
  2.891648e+01    1.259220e+04
  2.893936e+01    1.254661e+04
  2.896225e+01    1.249851e+04
  2.898513e+01    1.245614e+04
  2.900802e+01    1.241869e+04
  2.903090e+01    1.237532e+04
  2.905379e+01    1.232568e+04
  2.907667e+01    1.229367e+04
  2.909956e+01    1.225520e+04
  2.912244e+01    1.220554e+04
  2.914533e+01    1.216472e+04
  2.916821e+01    1.213707e+04
  2.919110e+01    1.210458e+04
  2.921398e+01    1.207703e+04
  2.923687e+01    1.205688e+04
  2.925976e+01    1.202427e+04
  2.928264e+01    1.200658e+04
  2.930553e+01    1.200205e+04
  2.932841e+01    1.199646e+04
  2.935130e+01    1.200740e+04
  2.937418e+01    1.205289e+04
  2.939707e+01    1.216450e+04
  2.941995e+01    1.233210e+04
  2.944284e+01    1.258452e+04
  2.946572e+01    1.292421e+04
  2.948861e+01    1.321912e+04
  2.951149e+01    1.336212e+04
  2.953438e+01    1.327187e+04
  2.955727e+01    1.294130e+04
  2.958015e+01    1.252867e+04
  2.960304e+01    1.218071e+04
  2.962592e+01    1.190949e+04
  2.964881e+01    1.171756e+04
  2.967169e+01    1.157923e+04
  2.969458e+01    1.148451e+04
  2.971746e+01    1.141502e+04
  2.974035e+01    1.136797e+04
  2.976323e+01    1.132979e+04
  2.978612e+01    1.130221e+04
  2.980900e+01    1.128055e+04
  2.983189e+01    1.125809e+04
  2.985478e+01    1.123095e+04
  2.987766e+01    1.120475e+04
  2.990055e+01    1.119645e+04
  2.992343e+01    1.118480e+04
  2.994632e+01    1.117381e+04
  2.996920e+01    1.116989e+04
  2.999209e+01    1.117791e+04
  3.001497e+01    1.119309e+04
  3.003786e+01    1.120184e+04
  3.006074e+01    1.120852e+04
  3.008363e+01    1.122576e+04
  3.010651e+01    1.125394e+04
  3.012940e+01    1.129614e+04
  3.015228e+01    1.131736e+04
  3.017517e+01    1.135110e+04
  3.019806e+01    1.142516e+04
  3.022094e+01    1.148433e+04
  3.024383e+01    1.155411e+04
  3.026671e+01    1.165570e+04
  3.028960e+01    1.178536e+04
  3.031248e+01    1.195396e+04
  3.033537e+01    1.217162e+04
  3.035825e+01    1.244992e+04
  3.038114e+01    1.281711e+04
  3.040402e+01    1.329836e+04
  3.042691e+01    1.395980e+04
  3.044979e+01    1.486707e+04
  3.047268e+01    1.610730e+04
  3.049557e+01    1.779330e+04
  3.051845e+01    1.999196e+04
  3.054134e+01    2.277628e+04
  3.056422e+01    2.611458e+04
  3.058711e+01    2.965168e+04
  3.060999e+01    3.270798e+04
  3.063288e+01    3.446118e+04
  3.065576e+01    3.432778e+04
  3.067865e+01    3.239341e+04
  3.070153e+01    2.935370e+04
  3.072442e+01    2.601635e+04
  3.074730e+01    2.301469e+04
  3.077019e+01    2.058771e+04
  3.079308e+01    1.880971e+04
  3.081596e+01    1.762099e+04
  3.083885e+01    1.702085e+04
  3.086173e+01    1.706602e+04
  3.088462e+01    1.791942e+04
  3.090750e+01    1.973946e+04
  3.093039e+01    2.252352e+04
  3.095327e+01    2.570914e+04
  3.097616e+01    2.811035e+04
  3.099904e+01    2.852726e+04
  3.102193e+01    2.661265e+04
  3.104481e+01    2.314131e+04
  3.106770e+01    1.944408e+04
  3.109059e+01    1.645654e+04
  3.111347e+01    1.441941e+04
  3.113636e+01    1.311792e+04
  3.115924e+01    1.229172e+04
  3.118213e+01    1.174510e+04
  3.120501e+01    1.137299e+04
  3.122790e+01    1.109622e+04
  3.125078e+01    1.089100e+04
  3.127367e+01    1.072717e+04
  3.129655e+01    1.060423e+04
  3.131944e+01    1.050819e+04
  3.134232e+01    1.041429e+04
  3.136521e+01    1.033837e+04
  3.138809e+01    1.028106e+04
  3.141098e+01    1.022829e+04
  3.143387e+01    1.017688e+04
  3.145675e+01    1.012957e+04
  3.147964e+01    1.008676e+04
  3.150252e+01    1.003324e+04
  3.152541e+01    9.997400e+03
  3.154829e+01    9.959161e+03
  3.157118e+01    9.927973e+03
  3.159406e+01    9.892891e+03
  3.161695e+01    9.865146e+03
  3.163983e+01    9.837494e+03
  3.166272e+01    9.821673e+03
  3.168560e+01    9.798472e+03
  3.170849e+01    9.772961e+03
  3.173138e+01    9.754979e+03
  3.175426e+01    9.732680e+03
  3.177715e+01    9.707606e+03
  3.180003e+01    9.698229e+03
  3.182292e+01    9.694070e+03
  3.184580e+01    9.680569e+03
  3.186869e+01    9.669393e+03
  3.189157e+01    9.663269e+03
  3.191446e+01    9.658354e+03
  3.193734e+01    9.655185e+03
  3.196023e+01    9.649007e+03
  3.198311e+01    9.651600e+03
  3.200600e+01    9.655229e+03
  3.202889e+01    9.663627e+03
  3.205177e+01    9.685304e+03
  3.207466e+01    9.708490e+03
  3.209754e+01    9.721060e+03
  3.212043e+01    9.740732e+03
  3.214331e+01    9.759330e+03
  3.216620e+01    9.771660e+03
  3.218908e+01    9.768972e+03
  3.221197e+01    9.758133e+03
  3.223485e+01    9.747792e+03
  3.225774e+01    9.756734e+03
  3.228062e+01    9.801470e+03
  3.230351e+01    9.898280e+03
  3.232639e+01    1.008004e+04
  3.234928e+01    1.033679e+04
  3.237217e+01    1.062756e+04
  3.239505e+01    1.081899e+04
  3.241794e+01    1.081190e+04
  3.244082e+01    1.060357e+04
  3.246371e+01    1.026593e+04
  3.248659e+01    9.928461e+03
  3.250948e+01    9.666937e+03
  3.253236e+01    9.486299e+03
  3.255525e+01    9.353105e+03
  3.257813e+01    9.265229e+03
  3.260102e+01    9.217203e+03
  3.262390e+01    9.176745e+03
  3.264679e+01    9.146403e+03
  3.266968e+01    9.117419e+03
  3.269256e+01    9.095504e+03
  3.271545e+01    9.078765e+03
  3.273833e+01    9.061385e+03
  3.276122e+01    9.032821e+03
  3.278410e+01    9.011007e+03
  3.280699e+01    8.991554e+03
  3.282987e+01    8.982649e+03
  3.285276e+01    8.969684e+03
  3.287564e+01    8.954050e+03
  3.289853e+01    8.946488e+03
  3.292141e+01    8.928152e+03
  3.294430e+01    8.910028e+03
  3.296719e+01    8.903638e+03
  3.299007e+01    8.890848e+03
  3.301296e+01    8.878378e+03
  3.303584e+01    8.875931e+03
  3.305873e+01    8.868607e+03
  3.308161e+01    8.854911e+03
  3.310450e+01    8.842195e+03
  3.312738e+01    8.843810e+03
  3.315027e+01    8.844427e+03
  3.317315e+01    8.834676e+03
  3.319604e+01    8.837521e+03
  3.321892e+01    8.842586e+03
  3.324181e+01    8.842797e+03
  3.326469e+01    8.843544e+03
  3.328758e+01    8.856550e+03
  3.331047e+01    8.858903e+03
  3.333335e+01    8.842853e+03
  3.335624e+01    8.835683e+03
  3.337912e+01    8.838837e+03
  3.340201e+01    8.847225e+03
  3.342489e+01    8.855669e+03
  3.344778e+01    8.871558e+03
  3.347066e+01    8.903379e+03
  3.349355e+01    8.955285e+03
  3.351643e+01    9.017818e+03
  3.353932e+01    9.111986e+03
  3.356220e+01    9.254632e+03
  3.358509e+01    9.472228e+03
  3.360798e+01    9.820715e+03
  3.363086e+01    1.038145e+04
  3.365375e+01    1.131256e+04
  3.367663e+01    1.279090e+04
  3.369952e+01    1.492822e+04
  3.372240e+01    1.753438e+04
  3.374529e+01    1.984829e+04
  3.376817e+01    2.092248e+04
  3.379106e+01    2.028787e+04
  3.381394e+01    1.821658e+04
  3.383683e+01    1.555300e+04
  3.385971e+01    1.320695e+04
  3.388260e+01    1.154691e+04
  3.390549e+01    1.048790e+04
  3.392837e+01    9.823140e+03
  3.395126e+01    9.408999e+03
  3.397414e+01    9.154488e+03
  3.399703e+01    8.971805e+03
  3.401991e+01    8.856640e+03
  3.404280e+01    8.773473e+03
  3.406568e+01    8.706352e+03
  3.408857e+01    8.667014e+03
  3.411145e+01    8.645042e+03
  3.413434e+01    8.620540e+03
  3.415722e+01    8.605200e+03
  3.418011e+01    8.588093e+03
  3.420300e+01    8.560098e+03
  3.422588e+01    8.530057e+03
  3.424877e+01    8.502576e+03
  3.427165e+01    8.468305e+03
  3.429454e+01    8.427309e+03
  3.431742e+01    8.393709e+03
  3.434031e+01    8.361766e+03
  3.436319e+01    8.326960e+03
  3.438608e+01    8.297009e+03
  3.440896e+01    8.278541e+03
  3.443185e+01    8.250235e+03
  3.445473e+01    8.225658e+03
  3.447762e+01    8.206610e+03
  3.450050e+01    8.196694e+03
  3.452339e+01    8.189217e+03
  3.454628e+01    8.180753e+03
  3.456916e+01    8.170197e+03
  3.459205e+01    8.163899e+03
  3.461493e+01    8.158744e+03
  3.463782e+01    8.157396e+03
  3.466070e+01    8.160282e+03
  3.468359e+01    8.176142e+03
  3.470647e+01    8.202747e+03
  3.472936e+01    8.224997e+03
  3.475224e+01    8.255054e+03
  3.477513e+01    8.302104e+03
  3.479801e+01    8.360944e+03
  3.482090e+01    8.446408e+03
  3.484379e+01    8.542028e+03
  3.486667e+01    8.643691e+03
  3.488956e+01    8.719437e+03
  3.491244e+01    8.740115e+03
  3.493533e+01    8.702118e+03
  3.495821e+01    8.607783e+03
  3.498110e+01    8.490042e+03
  3.500398e+01    8.359467e+03
  3.502687e+01    8.242783e+03
  3.504975e+01    8.157984e+03
  3.507264e+01    8.086770e+03
  3.509552e+01    8.028703e+03
  3.511841e+01    7.990828e+03
  3.514130e+01    7.954334e+03
  3.516418e+01    7.929446e+03
  3.518707e+01    7.894045e+03
  3.520995e+01    7.878867e+03
  3.523284e+01    7.865893e+03
  3.525572e+01    7.851520e+03
  3.527861e+01    7.832192e+03
  3.530149e+01    7.821137e+03
  3.532438e+01    7.808982e+03
  3.534726e+01    7.798140e+03
  3.537015e+01    7.788804e+03
  3.539303e+01    7.771833e+03
  3.541592e+01    7.757506e+03
  3.543880e+01    7.746208e+03
  3.546169e+01    7.739539e+03
  3.548458e+01    7.731862e+03
  3.550746e+01    7.726004e+03
  3.553035e+01    7.720764e+03
  3.555323e+01    7.703406e+03
  3.557612e+01    7.690369e+03
  3.559900e+01    7.684817e+03
  3.562189e+01    7.678234e+03
  3.564477e+01    7.671638e+03
  3.566766e+01    7.666729e+03
  3.569054e+01    7.660556e+03
  3.571343e+01    7.655691e+03
  3.573631e+01    7.657676e+03
  3.575920e+01    7.653189e+03
  3.578209e+01    7.651583e+03
  3.580497e+01    7.652428e+03
  3.582786e+01    7.655649e+03
  3.585074e+01    7.656588e+03
  3.587363e+01    7.656404e+03
  3.589651e+01    7.656318e+03
  3.591940e+01    7.660661e+03
  3.594228e+01    7.665470e+03
  3.596517e+01    7.674583e+03
  3.598805e+01    7.696471e+03
  3.601094e+01    7.708989e+03
  3.603382e+01    7.719300e+03
  3.605671e+01    7.733260e+03
  3.607960e+01    7.762431e+03
  3.610248e+01    7.795640e+03
  3.612537e+01    7.835018e+03
  3.614825e+01    7.900039e+03
  3.617114e+01    7.995066e+03
  3.619402e+01    8.133168e+03
  3.621691e+01    8.360007e+03
  3.623979e+01    8.722451e+03
  3.626268e+01    9.294266e+03
  3.628556e+01    1.013354e+04
  3.630845e+01    1.116225e+04
  3.633133e+01    1.206750e+04
  3.635422e+01    1.249776e+04
  3.637710e+01    1.226359e+04
  3.639999e+01    1.147605e+04
  3.642288e+01    1.046522e+04
  3.644576e+01    9.553850e+03
  3.646865e+01    8.908778e+03
  3.649153e+01    8.499185e+03
  3.651442e+01    8.252490e+03
  3.653730e+01    8.110447e+03
  3.656019e+01    8.015449e+03
  3.658307e+01    7.957589e+03
  3.660596e+01    7.922371e+03
  3.662884e+01    7.899032e+03
  3.665173e+01    7.882462e+03
  3.667461e+01    7.869675e+03
  3.669750e+01    7.869461e+03
  3.672039e+01    7.875758e+03
  3.674327e+01    7.875922e+03
  3.676616e+01    7.871086e+03
  3.678904e+01    7.872816e+03
  3.681193e+01    7.882558e+03
  3.683481e+01    7.889614e+03
  3.685770e+01    7.893569e+03
  3.688058e+01    7.911648e+03
  3.690347e+01    7.922299e+03
  3.692635e+01    7.933514e+03
  3.694924e+01    7.950056e+03
  3.697212e+01    7.975439e+03
  3.699501e+01    8.011490e+03
  3.701790e+01    8.039902e+03
  3.704078e+01    8.078855e+03
  3.706367e+01    8.116133e+03
  3.708655e+01    8.159177e+03
  3.710944e+01    8.227347e+03
  3.713232e+01    8.283119e+03
  3.715521e+01    8.357830e+03
  3.717809e+01    8.440833e+03
  3.720098e+01    8.522917e+03
  3.722386e+01    8.629482e+03
  3.724675e+01    8.750640e+03
  3.726963e+01    8.906749e+03
  3.729252e+01    9.118759e+03
  3.731541e+01    9.392291e+03
  3.733829e+01    9.754922e+03
  3.736118e+01    1.025519e+04
  3.738406e+01    1.097035e+04
  3.740695e+01    1.204513e+04
  3.742983e+01    1.373117e+04
  3.745272e+01    1.647422e+04
  3.747560e+01    2.099518e+04
  3.749849e+01    2.824179e+04
  3.752137e+01    3.875730e+04
  3.754426e+01    5.130411e+04
  3.756714e+01    6.206976e+04
  3.759003e+01    6.667920e+04
  3.761291e+01    6.326924e+04
  3.763580e+01    5.337298e+04
  3.765869e+01    4.089629e+04
  3.768157e+01    2.989591e+04
  3.770446e+01    2.210085e+04
  3.772734e+01    1.718879e+04
  3.775023e+01    1.421412e+04
  3.777311e+01    1.238273e+04
  3.779600e+01    1.123662e+04
  3.781888e+01    1.046554e+04
  3.784177e+01    9.924242e+03
  3.786465e+01    9.528000e+03
  3.788754e+01    9.227146e+03
  3.791042e+01    9.005736e+03
  3.793331e+01    8.838807e+03
  3.795620e+01    8.695368e+03
  3.797908e+01    8.567898e+03
  3.800197e+01    8.473407e+03
  3.802485e+01    8.388760e+03
  3.804774e+01    8.313250e+03
  3.807062e+01    8.266762e+03
  3.809351e+01    8.222903e+03
  3.811639e+01    8.184034e+03
  3.813928e+01    8.141589e+03
  3.816216e+01    8.106013e+03
  3.818505e+01    8.088463e+03
  3.820793e+01    8.071968e+03
  3.823082e+01    8.041704e+03
  3.825371e+01    8.028421e+03
  3.827659e+01    8.030056e+03
  3.829948e+01    8.037001e+03
  3.832236e+01    8.047688e+03
  3.834525e+01    8.057808e+03
  3.836813e+01    8.084619e+03
  3.839102e+01    8.106076e+03
  3.841390e+01    8.124400e+03
  3.843679e+01    8.125714e+03
  3.845967e+01    8.122133e+03
  3.848256e+01    8.105547e+03
  3.850544e+01    8.092142e+03
  3.852833e+01    8.074531e+03
  3.855121e+01    8.059116e+03
  3.857410e+01    8.058663e+03
  3.859699e+01    8.062799e+03
  3.861987e+01    8.093750e+03
  3.864276e+01    8.162279e+03
  3.866564e+01    8.281235e+03
  3.868853e+01    8.499788e+03
  3.871141e+01    8.833313e+03
  3.873430e+01    9.279104e+03
  3.875718e+01    9.730910e+03
  3.878007e+01    1.001748e+04
  3.880295e+01    9.999034e+03
  3.882584e+01    9.712145e+03
  3.884872e+01    9.260096e+03
  3.887161e+01    8.806807e+03
  3.889450e+01    8.451751e+03
  3.891738e+01    8.211278e+03
  3.894027e+01    8.072415e+03
  3.896315e+01    7.982391e+03
  3.898604e+01    7.919625e+03
  3.900892e+01    7.882734e+03
  3.903181e+01    7.854590e+03
  3.905469e+01    7.831312e+03
  3.907758e+01    7.815035e+03
  3.910046e+01    7.803955e+03
  3.912335e+01    7.795975e+03
  3.914623e+01    7.791330e+03
  3.916912e+01    7.787542e+03
  3.919201e+01    7.783474e+03
  3.921489e+01    7.761990e+03
  3.923778e+01    7.756056e+03
  3.926066e+01    7.752799e+03
  3.928355e+01    7.739617e+03
  3.930643e+01    7.728758e+03
  3.932932e+01    7.722271e+03
  3.935220e+01    7.717655e+03
  3.937509e+01    7.724763e+03
  3.939797e+01    7.722919e+03
  3.942086e+01    7.719254e+03
  3.944374e+01    7.710243e+03
  3.946663e+01    7.712157e+03
  3.948951e+01    7.717819e+03
  3.951240e+01    7.717811e+03
  3.953529e+01    7.725314e+03
  3.955817e+01    7.740042e+03
  3.958106e+01    7.755510e+03
  3.960394e+01    7.756339e+03
  3.962683e+01    7.762105e+03
  3.964971e+01    7.772940e+03
  3.967260e+01    7.766264e+03
  3.969548e+01    7.760035e+03
  3.971837e+01    7.748500e+03
  3.974125e+01    7.728367e+03
  3.976414e+01    7.712162e+03
  3.978702e+01    7.706556e+03
  3.980991e+01    7.700218e+03
  3.983280e+01    7.710287e+03
  3.985568e+01    7.760307e+03
  3.987857e+01    7.850225e+03
  3.990145e+01    7.969174e+03
  3.992434e+01    8.061702e+03
  3.994722e+01    8.123217e+03
  3.997011e+01    8.117406e+03
  3.999299e+01    8.036780e+03
  4.001588e+01    7.922589e+03
  4.003876e+01    7.806525e+03
  4.006165e+01    7.723050e+03
  4.008453e+01    7.670207e+03
  4.010742e+01    7.636188e+03
  4.013031e+01    7.614835e+03
  4.015319e+01    7.603983e+03
  4.017608e+01    7.617521e+03
  4.019896e+01    7.626509e+03
  4.022185e+01    7.639195e+03
  4.024473e+01    7.662247e+03
  4.026762e+01    7.693376e+03
  4.029050e+01    7.724516e+03
  4.031339e+01    7.752923e+03
  4.033627e+01    7.769827e+03
  4.035916e+01    7.769712e+03
  4.038204e+01    7.757539e+03
  4.040493e+01    7.727385e+03
  4.042782e+01    7.687767e+03
  4.045070e+01    7.644744e+03
  4.047359e+01    7.610807e+03
  4.049647e+01    7.574249e+03
  4.051936e+01    7.544849e+03
  4.054224e+01    7.522446e+03
  4.056513e+01    7.507321e+03
  4.058801e+01    7.497620e+03
  4.061090e+01    7.495539e+03
  4.063378e+01    7.497948e+03
  4.065667e+01    7.497514e+03
  4.067955e+01    7.488637e+03
  4.070244e+01    7.483185e+03
  4.072532e+01    7.495548e+03
  4.074821e+01    7.506765e+03
  4.077110e+01    7.514865e+03
  4.079398e+01    7.533999e+03
  4.081687e+01    7.552797e+03
  4.083975e+01    7.588391e+03
  4.086264e+01    7.637540e+03
  4.088552e+01    7.703422e+03
  4.090841e+01    7.804722e+03
  4.093129e+01    7.968803e+03
  4.095418e+01    8.217593e+03
  4.097706e+01    8.629908e+03
  4.099995e+01    9.307599e+03
  4.102283e+01    1.031107e+04
  4.104572e+01    1.159935e+04
  4.106861e+01    1.282688e+04
  4.109149e+01    1.353568e+04
  4.111438e+01    1.346758e+04
  4.113726e+01    1.264683e+04
  4.116015e+01    1.141092e+04
  4.118303e+01    1.019562e+04
  4.120592e+01    9.286601e+03
  4.122880e+01    8.730589e+03
  4.125169e+01    8.406146e+03
  4.127457e+01    8.209349e+03
  4.129746e+01    8.083122e+03
  4.132034e+01    7.972809e+03
  4.134323e+01    7.872415e+03
  4.136612e+01    7.776988e+03
  4.138900e+01    7.688009e+03
  4.141189e+01    7.610118e+03
  4.143477e+01    7.552671e+03
  4.145766e+01    7.510236e+03
  4.148054e+01    7.478352e+03
  4.150343e+01    7.457051e+03
  4.152631e+01    7.436837e+03
  4.154920e+01    7.424735e+03
  4.157208e+01    7.405308e+03
  4.159497e+01    7.395854e+03
  4.161785e+01    7.405271e+03
  4.164074e+01    7.405957e+03
  4.166362e+01    7.398432e+03
  4.168651e+01    7.394387e+03
  4.170940e+01    7.392116e+03
  4.173228e+01    7.384883e+03
  4.175517e+01    7.385292e+03
  4.177805e+01    7.382491e+03
  4.180094e+01    7.386079e+03
  4.182382e+01    7.397617e+03
  4.184671e+01    7.406742e+03
  4.186959e+01    7.417317e+03
  4.189248e+01    7.433408e+03
  4.191536e+01    7.453396e+03
  4.193825e+01    7.478604e+03
  4.196113e+01    7.512782e+03
  4.198402e+01    7.553986e+03
  4.200691e+01    7.603895e+03
  4.202979e+01    7.672490e+03
  4.205268e+01    7.761078e+03
  4.207556e+01    7.876166e+03
  4.209845e+01    8.031497e+03
  4.212133e+01    8.241488e+03
  4.214422e+01    8.510354e+03
  4.216710e+01    8.807742e+03
  4.218999e+01    9.047702e+03
  4.221287e+01    9.123801e+03
  4.223576e+01    8.997076e+03
  4.225864e+01    8.722125e+03
  4.228153e+01    8.373040e+03
  4.230442e+01    8.061943e+03
  4.232730e+01    7.838248e+03
  4.235019e+01    7.679800e+03
  4.237307e+01    7.570173e+03
  4.239596e+01    7.488292e+03
  4.241884e+01    7.445344e+03
  4.244173e+01    7.409292e+03
  4.246461e+01    7.377722e+03
  4.248750e+01    7.350338e+03
  4.251038e+01    7.336173e+03
  4.253327e+01    7.317994e+03
  4.255615e+01    7.305093e+03
  4.257904e+01    7.295268e+03
  4.260192e+01    7.294336e+03
  4.262481e+01    7.291829e+03
  4.264770e+01    7.281443e+03
  4.267058e+01    7.280247e+03
  4.269347e+01    7.279588e+03
  4.271635e+01    7.280078e+03
  4.273924e+01    7.285841e+03
  4.276212e+01    7.295465e+03
  4.278501e+01    7.287536e+03
  4.280789e+01    7.284509e+03
  4.283078e+01    7.289543e+03
  4.285366e+01    7.293843e+03
  4.287655e+01    7.299697e+03
  4.289943e+01    7.314357e+03
  4.292232e+01    7.326163e+03
  4.294521e+01    7.345594e+03
  4.296809e+01    7.362188e+03
  4.299098e+01    7.369737e+03
  4.301386e+01    7.397361e+03
  4.303675e+01    7.432355e+03
  4.305963e+01    7.472923e+03
  4.308252e+01    7.529793e+03
  4.310540e+01    7.623249e+03
  4.312829e+01    7.740827e+03
  4.315117e+01    7.934224e+03
  4.317406e+01    8.242512e+03
  4.319694e+01    8.739768e+03
  4.321983e+01    9.505059e+03
  4.324272e+01    1.055392e+04
  4.326560e+01    1.166474e+04
  4.328849e+01    1.244313e+04
  4.331137e+01    1.261497e+04
  4.333426e+01    1.212107e+04
  4.335714e+01    1.116922e+04
  4.338003e+01    1.010260e+04
  4.340291e+01    9.246306e+03
  4.342580e+01    8.687927e+03
  4.344868e+01    8.352198e+03
  4.347157e+01    8.163852e+03
  4.349445e+01    8.068700e+03
  4.351734e+01    8.063367e+03
  4.354022e+01    8.094369e+03
  4.356311e+01    8.180474e+03
  4.358600e+01    8.314521e+03
  4.360888e+01    8.497823e+03
  4.363177e+01    8.771814e+03
  4.365465e+01    9.143505e+03
  4.367754e+01    9.671827e+03
  4.370042e+01    1.038339e+04
  4.372331e+01    1.125904e+04
  4.374619e+01    1.233715e+04
  4.376908e+01    1.358879e+04
  4.379196e+01    1.489794e+04
  4.381485e+01    1.613127e+04
  4.383773e+01    1.700314e+04
  4.386062e+01    1.728738e+04
  4.388351e+01    1.690605e+04
  4.390639e+01    1.596568e+04
  4.392928e+01    1.469410e+04
  4.395216e+01    1.339772e+04
  4.397505e+01    1.222861e+04
  4.399793e+01    1.127033e+04
  4.402082e+01    1.052871e+04
  4.404370e+01    9.984278e+03
  4.406659e+01    9.572043e+03
  4.408947e+01    9.290979e+03
  4.411236e+01    9.147048e+03
  4.413524e+01    9.111812e+03
  4.415813e+01    9.179236e+03
  4.418102e+01    9.410661e+03
  4.420390e+01    9.880251e+03
  4.422679e+01    1.070078e+04
  4.424967e+01    1.210901e+04
  4.427256e+01    1.444712e+04
  4.429544e+01    1.796306e+04
  4.431833e+01    2.241501e+04
  4.434121e+01    2.665594e+04
  4.436410e+01    2.906813e+04
  4.438698e+01    2.871946e+04
  4.440987e+01    2.577397e+04
  4.443275e+01    2.132548e+04
  4.445564e+01    1.696431e+04
  4.447853e+01    1.366129e+04
  4.450141e+01    1.148682e+04
  4.452430e+01    1.013162e+04
  4.454718e+01    9.286497e+03
  4.457007e+01    8.752346e+03
  4.459295e+01    8.425409e+03
  4.461584e+01    8.191792e+03
  4.463872e+01    8.023236e+03
  4.466161e+01    7.898359e+03
  4.468449e+01    7.805983e+03
  4.470738e+01    7.729741e+03
  4.473026e+01    7.668636e+03
  4.475315e+01    7.617155e+03
  4.477603e+01    7.553260e+03
  4.479892e+01    7.501140e+03
  4.482181e+01    7.457104e+03
  4.484469e+01    7.410303e+03
  4.486758e+01    7.367526e+03
  4.489046e+01    7.324838e+03
  4.491335e+01    7.289899e+03
  4.493623e+01    7.283951e+03
  4.495912e+01    7.271631e+03
  4.498200e+01    7.259279e+03
  4.500489e+01    7.237839e+03
  4.502777e+01    7.233017e+03
  4.505066e+01    7.231220e+03
  4.507354e+01    7.235966e+03
  4.509643e+01    7.246089e+03
  4.511932e+01    7.256488e+03
  4.514220e+01    7.288784e+03
  4.516509e+01    7.317353e+03
  4.518797e+01    7.364998e+03
  4.521086e+01    7.435623e+03
  4.523374e+01    7.550501e+03
  4.525663e+01    7.722596e+03
  4.527951e+01    8.009101e+03
  4.530240e+01    8.473427e+03
  4.532528e+01    9.208952e+03
  4.534817e+01    1.029226e+04
  4.537105e+01    1.158828e+04
  4.539394e+01    1.267427e+04
  4.541683e+01    1.315516e+04
  4.543971e+01    1.287011e+04
  4.546260e+01    1.192093e+04
  4.548548e+01    1.066851e+04
  4.550837e+01    9.508096e+03
  4.553125e+01    8.653746e+03
  4.555414e+01    8.101908e+03
  4.557702e+01    7.751849e+03
  4.559991e+01    7.531730e+03
  4.562279e+01    7.380228e+03
  4.564568e+01    7.300795e+03
  4.566856e+01    7.231004e+03
  4.569145e+01    7.194425e+03
  4.571433e+01    7.166592e+03
  4.573722e+01    7.139946e+03
  4.576011e+01    7.127819e+03
  4.578299e+01    7.122903e+03
  4.580588e+01    7.124537e+03
  4.582876e+01    7.117567e+03
  4.585165e+01    7.144132e+03
  4.587453e+01    7.152000e+03
  4.589742e+01    7.172257e+03
  4.592030e+01    7.186344e+03
  4.594319e+01    7.225139e+03
  4.596607e+01    7.263327e+03
  4.598896e+01    7.313384e+03
  4.601184e+01    7.359130e+03
  4.603473e+01    7.395773e+03
  4.605762e+01    7.443708e+03
  4.608050e+01    7.458496e+03
  4.610339e+01    7.460515e+03
  4.612627e+01    7.468732e+03
  4.614916e+01    7.422349e+03
  4.617204e+01    7.377465e+03
  4.619493e+01    7.328865e+03
  4.621781e+01    7.278548e+03
  4.624070e+01    7.238175e+03
  4.626358e+01    7.236317e+03
  4.628647e+01    7.249750e+03
  4.630935e+01    7.314376e+03
  4.633224e+01    7.457896e+03
  4.635513e+01    7.672785e+03
  4.637801e+01    8.017146e+03
  4.640090e+01    8.430383e+03
  4.642378e+01    8.747671e+03
  4.644667e+01    8.877269e+03
  4.646955e+01    8.769408e+03
  4.649244e+01    8.487406e+03
  4.651532e+01    8.106508e+03
  4.653821e+01    7.781905e+03
  4.656109e+01    7.561308e+03
  4.658398e+01    7.460676e+03
  4.660686e+01    7.423065e+03
  4.662975e+01    7.417716e+03
  4.665263e+01    7.462265e+03
  4.667552e+01    7.503853e+03
  4.669841e+01    7.514984e+03
  4.672129e+01    7.501745e+03
  4.674418e+01    7.461527e+03
  4.676706e+01    7.400562e+03
  4.678995e+01    7.334349e+03
  4.681283e+01    7.271138e+03
  4.683572e+01    7.212336e+03
  4.685860e+01    7.148821e+03
  4.688149e+01    7.103248e+03
  4.690437e+01    7.081185e+03
  4.692726e+01    7.076101e+03
  4.695014e+01    7.062667e+03
  4.697303e+01    7.047899e+03
  4.699592e+01    7.049285e+03
  4.701880e+01    7.049685e+03
  4.704169e+01    7.060757e+03
  4.706457e+01    7.055460e+03
  4.708746e+01    7.058675e+03
  4.711034e+01    7.075450e+03
  4.713323e+01    7.100079e+03
  4.715611e+01    7.091443e+03
  4.717900e+01    7.103877e+03
  4.720188e+01    7.134120e+03
  4.722477e+01    7.157793e+03
  4.724765e+01    7.199249e+03
  4.727054e+01    7.242282e+03
  4.729343e+01    7.303322e+03
  4.731631e+01    7.383661e+03
  4.733920e+01    7.496583e+03
  4.736208e+01    7.672972e+03
  4.738497e+01    7.954239e+03
  4.740785e+01    8.271992e+03
  4.743074e+01    8.532646e+03
  4.745362e+01    8.640073e+03
  4.747651e+01    8.645459e+03
  4.749939e+01    8.533341e+03
  4.752228e+01    8.331763e+03
  4.754516e+01    8.128780e+03
  4.756805e+01    7.944428e+03
  4.759094e+01    7.946955e+03
  4.761382e+01    7.975771e+03
  4.763671e+01    7.954020e+03
  4.765959e+01    7.913325e+03
  4.768248e+01    7.910108e+03
  4.770536e+01    7.891358e+03
  4.772825e+01    7.780432e+03
  4.775113e+01    7.854599e+03
  4.777402e+01    7.730719e+03
  4.779690e+01    7.743343e+03
  4.781979e+01    7.489333e+03
  4.784267e+01    7.246040e+03
  4.786556e+01    6.241386e+03
  4.788844e+01    3.040540e+03