File: Output/ROCK_XRD/WAM39B_integrated/rampe1/wam39b_rampe_1_xrd_000003_integrated.dat
# == pyFAI calibration ==
# Distance Sample to Detector: 0.261615 m
# PONI: 2.023e-01, 2.348e-01 m
# Rotations: -0.026380 0.002005 0.000000 rad
#
# == Fit2d calibration ==
# Distance Sample-beamCenter: 261.707 mm
# Center: x=6119.331, y=5134.776 pix
# Tilt: 1.516 deg  TiltPlanRot: 4.347 deg
#
# Detector Rayonix SX165	 PixelSize= 3.950e-05, 3.950e-05 m
#    Detector has a mask: True
#    Detector has a dark current: False
#    detector has a flat field: False
#
# Wavelength: 1.12713e-10 m
# Mask applied: from detector
# Dark current applied: False
# Flat field applied: False
# Polarization factor: None
# Normalization factor: 1.0
# --> ROCK\\WAM39B_integrated\wam39b_rampe_1_xrd_000003_integrated.dat
#       2th_deg             I
  2.502596e+01    5.418989e+03
  2.504885e+01    1.422059e+04
  2.507173e+01    1.914182e+04
  2.509462e+01    2.030552e+04
  2.511750e+01    2.219909e+04
  2.514039e+01    2.300379e+04
  2.516327e+01    2.292251e+04
  2.518616e+01    2.274191e+04
  2.520905e+01    2.261547e+04
  2.523193e+01    2.234766e+04
  2.525482e+01    2.242952e+04
  2.527770e+01    2.285696e+04
  2.530059e+01    2.277636e+04
  2.532347e+01    2.256247e+04
  2.534636e+01    2.236467e+04
  2.536924e+01    2.224705e+04
  2.539213e+01    2.223814e+04
  2.541501e+01    2.226924e+04
  2.543790e+01    2.230763e+04
  2.546078e+01    2.238503e+04
  2.548367e+01    2.238725e+04
  2.550656e+01    2.225400e+04
  2.552944e+01    2.219191e+04
  2.555233e+01    2.254823e+04
  2.557521e+01    2.280585e+04
  2.559810e+01    2.291649e+04
  2.562098e+01    2.313761e+04
  2.564387e+01    2.343045e+04
  2.566675e+01    2.375413e+04
  2.568964e+01    2.398396e+04
  2.571252e+01    2.422803e+04
  2.573541e+01    2.453924e+04
  2.575829e+01    2.474499e+04
  2.578118e+01    2.482031e+04
  2.580407e+01    2.491439e+04
  2.582695e+01    2.493496e+04
  2.584984e+01    2.484693e+04
  2.587272e+01    2.469076e+04
  2.589561e+01    2.455280e+04
  2.591849e+01    2.428471e+04
  2.594138e+01    2.404833e+04
  2.596426e+01    2.389131e+04
  2.598715e+01    2.365138e+04
  2.601003e+01    2.356495e+04
  2.603292e+01    2.344794e+04
  2.605580e+01    2.336714e+04
  2.607869e+01    2.338082e+04
  2.610157e+01    2.339785e+04
  2.612446e+01    2.344661e+04
  2.614735e+01    2.353386e+04
  2.617023e+01    2.365006e+04
  2.619312e+01    2.381875e+04
  2.621600e+01    2.407301e+04
  2.623889e+01    2.426946e+04
  2.626177e+01    2.455341e+04
  2.628466e+01    2.486920e+04
  2.630754e+01    2.523473e+04
  2.633043e+01    2.567308e+04
  2.635331e+01    2.625227e+04
  2.637620e+01    2.709106e+04
  2.639908e+01    2.826772e+04
  2.642197e+01    2.993203e+04
  2.644486e+01    3.211564e+04
  2.646774e+01    3.454448e+04
  2.649063e+01    3.618647e+04
  2.651351e+01    3.652084e+04
  2.653640e+01    3.523619e+04
  2.655928e+01    3.293660e+04
  2.658217e+01    3.050085e+04
  2.660505e+01    2.855540e+04
  2.662794e+01    2.721238e+04
  2.665082e+01    2.631279e+04
  2.667371e+01    2.577309e+04
  2.669659e+01    2.543693e+04
  2.671948e+01    2.520489e+04
  2.674237e+01    2.505220e+04
  2.676525e+01    2.494267e+04
  2.678814e+01    2.484125e+04
  2.681102e+01    2.477863e+04
  2.683391e+01    2.467471e+04
  2.685679e+01    2.457945e+04
  2.687968e+01    2.447418e+04
  2.690256e+01    2.426406e+04
  2.692545e+01    2.408483e+04
  2.694833e+01    2.385428e+04
  2.697122e+01    2.357898e+04
  2.699410e+01    2.328570e+04
  2.701699e+01    2.302557e+04
  2.703988e+01    2.267324e+04
  2.706276e+01    2.234828e+04
  2.708565e+01    2.204410e+04
  2.710853e+01    2.171342e+04
  2.713142e+01    2.141343e+04
  2.715430e+01    2.112656e+04
  2.717719e+01    2.084799e+04
  2.720007e+01    2.056586e+04
  2.722296e+01    2.033315e+04
  2.724584e+01    2.009744e+04
  2.726873e+01    1.993130e+04
  2.729161e+01    1.974236e+04
  2.731450e+01    1.957554e+04
  2.733738e+01    1.942210e+04
  2.736027e+01    1.928744e+04
  2.738316e+01    1.916263e+04
  2.740604e+01    1.904470e+04
  2.742893e+01    1.894929e+04
  2.745181e+01    1.888213e+04
  2.747470e+01    1.879683e+04
  2.749758e+01    1.872854e+04
  2.752047e+01    1.866812e+04
  2.754335e+01    1.861290e+04
  2.756624e+01    1.858102e+04
  2.758912e+01    1.854791e+04
  2.761201e+01    1.850673e+04
  2.763489e+01    1.847035e+04
  2.765778e+01    1.844753e+04
  2.768067e+01    1.844022e+04
  2.770355e+01    1.844742e+04
  2.772644e+01    1.842967e+04
  2.774932e+01    1.842142e+04
  2.777221e+01    1.844783e+04
  2.779509e+01    1.849595e+04
  2.781798e+01    1.857624e+04
  2.784086e+01    1.864202e+04
  2.786375e+01    1.874212e+04
  2.788663e+01    1.886107e+04
  2.790952e+01    1.899914e+04
  2.793240e+01    1.919626e+04
  2.795529e+01    1.942478e+04
  2.797818e+01    1.970746e+04
  2.800106e+01    2.008946e+04
  2.802395e+01    2.061367e+04
  2.804683e+01    2.131642e+04
  2.806972e+01    2.225254e+04
  2.809260e+01    2.340143e+04
  2.811549e+01    2.451938e+04
  2.813837e+01    2.522204e+04
  2.816126e+01    2.516643e+04
  2.818414e+01    2.431876e+04
  2.820703e+01    2.300193e+04
  2.822991e+01    2.163537e+04
  2.825280e+01    2.049828e+04
  2.827568e+01    1.965653e+04
  2.829857e+01    1.901204e+04
  2.832146e+01    1.850554e+04
  2.834434e+01    1.807837e+04
  2.836723e+01    1.772634e+04
  2.839011e+01    1.743748e+04
  2.841300e+01    1.717545e+04
  2.843588e+01    1.695451e+04
  2.845877e+01    1.674505e+04
  2.848165e+01    1.656466e+04
  2.850454e+01    1.642728e+04
  2.852742e+01    1.629731e+04
  2.855031e+01    1.618520e+04
  2.857319e+01    1.607278e+04
  2.859608e+01    1.596523e+04
  2.861897e+01    1.586746e+04
  2.864185e+01    1.576758e+04
  2.866474e+01    1.568379e+04
  2.868762e+01    1.556533e+04
  2.871051e+01    1.548279e+04
  2.873339e+01    1.540888e+04
  2.875628e+01    1.532597e+04
  2.877916e+01    1.525406e+04
  2.880205e+01    1.517143e+04
  2.882493e+01    1.510704e+04
  2.884782e+01    1.504934e+04
  2.887070e+01    1.498620e+04
  2.889359e+01    1.491951e+04
  2.891648e+01    1.485691e+04
  2.893936e+01    1.479602e+04
  2.896225e+01    1.472554e+04
  2.898513e+01    1.465705e+04
  2.900802e+01    1.460287e+04
  2.903090e+01    1.453869e+04
  2.905379e+01    1.447479e+04
  2.907667e+01    1.442633e+04
  2.909956e+01    1.436820e+04
  2.912244e+01    1.431501e+04
  2.914533e+01    1.426074e+04
  2.916821e+01    1.421523e+04
  2.919110e+01    1.417001e+04
  2.921398e+01    1.412671e+04
  2.923687e+01    1.409031e+04
  2.925976e+01    1.404995e+04
  2.928264e+01    1.400459e+04
  2.930553e+01    1.396759e+04
  2.932841e+01    1.392427e+04
  2.935130e+01    1.387450e+04
  2.937418e+01    1.383489e+04
  2.939707e+01    1.380869e+04
  2.941995e+01    1.376535e+04
  2.944284e+01    1.372905e+04
  2.946572e+01    1.371971e+04
  2.948861e+01    1.369745e+04
  2.951149e+01    1.369278e+04
  2.953438e+01    1.372006e+04
  2.955727e+01    1.376282e+04
  2.958015e+01    1.384819e+04
  2.960304e+01    1.402830e+04
  2.962592e+01    1.431005e+04
  2.964881e+01    1.469085e+04
  2.967169e+01    1.510923e+04
  2.969458e+01    1.541626e+04
  2.971746e+01    1.545542e+04
  2.974035e+01    1.519197e+04
  2.976323e+01    1.473126e+04
  2.978612e+01    1.425165e+04
  2.980900e+01    1.386240e+04
  2.983189e+01    1.358868e+04
  2.985478e+01    1.340548e+04
  2.987766e+01    1.327001e+04
  2.990055e+01    1.318511e+04
  2.992343e+01    1.313353e+04
  2.994632e+01    1.308315e+04
  2.996920e+01    1.305049e+04
  2.999209e+01    1.303048e+04
  3.001497e+01    1.301472e+04
  3.003786e+01    1.300297e+04
  3.006074e+01    1.298358e+04
  3.008363e+01    1.296760e+04
  3.010651e+01    1.296989e+04
  3.012940e+01    1.298049e+04
  3.015228e+01    1.296144e+04
  3.017517e+01    1.295243e+04
  3.019806e+01    1.297248e+04
  3.022094e+01    1.296129e+04
  3.024383e+01    1.295360e+04
  3.026671e+01    1.297017e+04
  3.028960e+01    1.298685e+04
  3.031248e+01    1.299278e+04
  3.033537e+01    1.301727e+04
  3.035825e+01    1.304668e+04
  3.038114e+01    1.306999e+04
  3.040402e+01    1.310304e+04
  3.042691e+01    1.314638e+04
  3.044979e+01    1.319826e+04
  3.047268e+01    1.324429e+04
  3.049557e+01    1.328799e+04
  3.051845e+01    1.333764e+04
  3.054134e+01    1.339912e+04
  3.056422e+01    1.348204e+04
  3.058711e+01    1.356484e+04
  3.060999e+01    1.364438e+04
  3.063288e+01    1.373942e+04
  3.065576e+01    1.385721e+04
  3.067865e+01    1.398456e+04
  3.070153e+01    1.413331e+04
  3.072442e+01    1.429333e+04
  3.074730e+01    1.447858e+04
  3.077019e+01    1.467752e+04
  3.079308e+01    1.491022e+04
  3.081596e+01    1.515099e+04
  3.083885e+01    1.540764e+04
  3.086173e+01    1.568690e+04
  3.088462e+01    1.601420e+04
  3.090750e+01    1.636917e+04
  3.093039e+01    1.676605e+04
  3.095327e+01    1.721143e+04
  3.097616e+01    1.772082e+04
  3.099904e+01    1.832621e+04
  3.102193e+01    1.906592e+04
  3.104481e+01    2.002703e+04
  3.106770e+01    2.140162e+04
  3.109059e+01    2.344894e+04
  3.111347e+01    2.649692e+04
  3.113636e+01    3.052439e+04
  3.115924e+01    3.477255e+04
  3.118213e+01    3.779548e+04
  3.120501e+01    3.824557e+04
  3.122790e+01    3.580889e+04
  3.125078e+01    3.155463e+04
  3.127367e+01    2.705082e+04
  3.129655e+01    2.339481e+04
  3.131944e+01    2.080536e+04
  3.134232e+01    1.902763e+04
  3.136521e+01    1.779850e+04
  3.138809e+01    1.691921e+04
  3.141098e+01    1.624468e+04
  3.143387e+01    1.569064e+04
  3.145675e+01    1.522817e+04
  3.147964e+01    1.483523e+04
  3.150252e+01    1.448463e+04
  3.152541e+01    1.419845e+04
  3.154829e+01    1.393295e+04
  3.157118e+01    1.370855e+04
  3.159406e+01    1.351543e+04
  3.161695e+01    1.333602e+04
  3.163983e+01    1.317503e+04
  3.166272e+01    1.304311e+04
  3.168560e+01    1.291758e+04
  3.170849e+01    1.280453e+04
  3.173138e+01    1.270633e+04
  3.175426e+01    1.259756e+04
  3.177715e+01    1.250729e+04
  3.180003e+01    1.243774e+04
  3.182292e+01    1.236468e+04
  3.184580e+01    1.229407e+04
  3.186869e+01    1.223943e+04
  3.189157e+01    1.218358e+04
  3.191446e+01    1.212072e+04
  3.193734e+01    1.207032e+04
  3.196023e+01    1.202319e+04
  3.198311e+01    1.196875e+04
  3.200600e+01    1.191485e+04
  3.202889e+01    1.187403e+04
  3.205177e+01    1.183770e+04
  3.207466e+01    1.179679e+04
  3.209754e+01    1.174710e+04
  3.212043e+01    1.171868e+04
  3.214331e+01    1.168391e+04
  3.216620e+01    1.165041e+04
  3.218908e+01    1.161047e+04
  3.221197e+01    1.157409e+04
  3.223485e+01    1.154654e+04
  3.225774e+01    1.152046e+04
  3.228062e+01    1.148732e+04
  3.230351e+01    1.145165e+04
  3.232639e+01    1.142392e+04
  3.234928e+01    1.139620e+04
  3.237217e+01    1.138134e+04
  3.239505e+01    1.136731e+04
  3.241794e+01    1.135713e+04
  3.244082e+01    1.135704e+04
  3.246371e+01    1.138603e+04
  3.248659e+01    1.145596e+04
  3.250948e+01    1.158216e+04
  3.253236e+01    1.180505e+04
  3.255525e+01    1.213718e+04
  3.257813e+01    1.252765e+04
  3.260102e+01    1.285920e+04
  3.262390e+01    1.297447e+04
  3.264679e+01    1.280566e+04
  3.266968e+01    1.241502e+04
  3.269256e+01    1.195726e+04
  3.271545e+01    1.157771e+04
  3.273833e+01    1.129480e+04
  3.276122e+01    1.109868e+04
  3.278410e+01    1.097534e+04
  3.280699e+01    1.089089e+04
  3.282987e+01    1.082804e+04
  3.285276e+01    1.077910e+04
  3.287564e+01    1.073473e+04
  3.289853e+01    1.070600e+04
  3.292141e+01    1.066866e+04
  3.294430e+01    1.064121e+04
  3.296719e+01    1.061095e+04
  3.299007e+01    1.057803e+04
  3.301296e+01    1.055635e+04
  3.303584e+01    1.054507e+04
  3.305873e+01    1.052223e+04
  3.308161e+01    1.049360e+04
  3.310450e+01    1.048047e+04
  3.312738e+01    1.048119e+04
  3.315027e+01    1.047565e+04
  3.317315e+01    1.045229e+04
  3.319604e+01    1.043582e+04
  3.321892e+01    1.042580e+04
  3.324181e+01    1.041382e+04
  3.326469e+01    1.039808e+04
  3.328758e+01    1.039216e+04
  3.331047e+01    1.039423e+04
  3.333335e+01    1.038047e+04
  3.335624e+01    1.037312e+04
  3.337912e+01    1.036881e+04
  3.340201e+01    1.037160e+04
  3.342489e+01    1.037866e+04
  3.344778e+01    1.036999e+04
  3.347066e+01    1.036131e+04
  3.349355e+01    1.036169e+04
  3.351643e+01    1.035336e+04
  3.353932e+01    1.035479e+04
  3.356220e+01    1.035846e+04
  3.358509e+01    1.036583e+04
  3.360798e+01    1.037126e+04
  3.363086e+01    1.038854e+04
  3.365375e+01    1.042497e+04
  3.367663e+01    1.045915e+04
  3.369952e+01    1.050599e+04
  3.372240e+01    1.057520e+04
  3.374529e+01    1.066299e+04
  3.376817e+01    1.079266e+04
  3.379106e+01    1.099729e+04
  3.381394e+01    1.130825e+04
  3.383683e+01    1.176626e+04
  3.385971e+01    1.253648e+04
  3.388260e+01    1.382560e+04
  3.390549e+01    1.587217e+04
  3.392837e+01    1.874803e+04
  3.395126e+01    2.202329e+04
  3.397414e+01    2.467447e+04
  3.399703e+01    2.553525e+04
  3.401991e+01    2.425805e+04
  3.404280e+01    2.141470e+04
  3.406568e+01    1.814446e+04
  3.408857e+01    1.542915e+04
  3.411145e+01    1.354778e+04
  3.413434e+01    1.236053e+04
  3.415722e+01    1.164481e+04
  3.418011e+01    1.119868e+04
  3.420300e+01    1.090581e+04
  3.422588e+01    1.070295e+04
  3.424877e+01    1.056783e+04
  3.427165e+01    1.047155e+04
  3.429454e+01    1.039115e+04
  3.431742e+01    1.032943e+04
  3.434031e+01    1.028493e+04
  3.436319e+01    1.024455e+04
  3.438608e+01    1.020340e+04
  3.440896e+01    1.016958e+04
  3.443185e+01    1.013339e+04
  3.445473e+01    1.009047e+04
  3.447762e+01    1.004725e+04
  3.450050e+01    1.001126e+04
  3.452339e+01    9.974271e+03
  3.454628e+01    9.947875e+03
  3.456916e+01    9.921361e+03
  3.459205e+01    9.888611e+03
  3.461493e+01    9.854968e+03
  3.463782e+01    9.832424e+03
  3.466070e+01    9.807637e+03
  3.468359e+01    9.779883e+03
  3.470647e+01    9.762562e+03
  3.472936e+01    9.743221e+03
  3.475224e+01    9.721209e+03
  3.477513e+01    9.711935e+03
  3.479801e+01    9.704273e+03
  3.482090e+01    9.700302e+03
  3.484379e+01    9.690154e+03
  3.486667e+01    9.695823e+03
  3.488956e+01    9.704486e+03
  3.491244e+01    9.707298e+03
  3.493533e+01    9.713738e+03
  3.495821e+01    9.721547e+03
  3.498110e+01    9.743742e+03
  3.500398e+01    9.768414e+03
  3.502687e+01    9.798910e+03
  3.504975e+01    9.832756e+03
  3.507264e+01    9.863534e+03
  3.509552e+01    9.888041e+03
  3.511841e+01    9.923828e+03
  3.514130e+01    9.944542e+03
  3.516418e+01    9.959348e+03
  3.518707e+01    9.952512e+03
  3.520995e+01    9.928305e+03
  3.523284e+01    9.906354e+03
  3.525572e+01    9.867197e+03
  3.527861e+01    9.812304e+03
  3.530149e+01    9.760610e+03
  3.532438e+01    9.701750e+03
  3.534726e+01    9.648481e+03
  3.537015e+01    9.598085e+03
  3.539303e+01    9.540742e+03
  3.541592e+01    9.491931e+03
  3.543880e+01    9.444344e+03
  3.546169e+01    9.415318e+03
  3.548458e+01    9.386249e+03
  3.550746e+01    9.348586e+03
  3.553035e+01    9.315768e+03
  3.555323e+01    9.285820e+03
  3.557612e+01    9.256404e+03
  3.559900e+01    9.230765e+03
  3.562189e+01    9.202709e+03
  3.564477e+01    9.178923e+03
  3.566766e+01    9.165854e+03
  3.569054e+01    9.147867e+03
  3.571343e+01    9.130432e+03
  3.573631e+01    9.121532e+03
  3.575920e+01    9.099569e+03
  3.578209e+01    9.088336e+03
  3.580497e+01    9.087146e+03
  3.582786e+01    9.076994e+03
  3.585074e+01    9.065738e+03
  3.587363e+01    9.060141e+03
  3.589651e+01    9.052051e+03
  3.591940e+01    9.049235e+03
  3.594228e+01    9.042220e+03
  3.596517e+01    9.035960e+03
  3.598805e+01    9.038774e+03
  3.601094e+01    9.045688e+03
  3.603382e+01    9.046491e+03
  3.605671e+01    9.041501e+03
  3.607960e+01    9.041280e+03
  3.610248e+01    9.048515e+03
  3.612537e+01    9.051340e+03
  3.614825e+01    9.055840e+03
  3.617114e+01    9.067401e+03
  3.619402e+01    9.072299e+03
  3.621691e+01    9.081935e+03
  3.623979e+01    9.088061e+03
  3.626268e+01    9.108269e+03
  3.628556e+01    9.126415e+03
  3.630845e+01    9.154501e+03
  3.633133e+01    9.187680e+03
  3.635422e+01    9.237979e+03
  3.637710e+01    9.304350e+03
  3.639999e+01    9.393521e+03
  3.642288e+01    9.528623e+03
  3.644576e+01    9.736371e+03
  3.646865e+01    1.008892e+04
  3.649153e+01    1.066208e+04
  3.651442e+01    1.153444e+04
  3.653730e+01    1.274637e+04
  3.656019e+01    1.405126e+04
  3.658307e+01    1.497821e+04
  3.660596e+01    1.515238e+04
  3.662884e+01    1.450419e+04
  3.665173e+01    1.330310e+04
  3.667461e+01    1.203266e+04
  3.669750e+01    1.103423e+04
  3.672039e+01    1.035675e+04
  3.674327e+01    9.939234e+03
  3.676616e+01    9.683933e+03
  3.678904e+01    9.526734e+03
  3.681193e+01    9.431749e+03
  3.683481e+01    9.364866e+03
  3.685770e+01    9.304621e+03
  3.688058e+01    9.280582e+03
  3.690347e+01    9.264035e+03
  3.692635e+01    9.258615e+03
  3.694924e+01    9.243946e+03
  3.697212e+01    9.241494e+03
  3.699501e+01    9.256519e+03
  3.701790e+01    9.259403e+03
  3.704078e+01    9.259357e+03
  3.706367e+01    9.262477e+03
  3.708655e+01    9.273668e+03
  3.710944e+01    9.292391e+03
  3.713232e+01    9.303817e+03
  3.715521e+01    9.329339e+03
  3.717809e+01    9.362045e+03
  3.720098e+01    9.397637e+03
  3.722386e+01    9.433583e+03
  3.724675e+01    9.462271e+03
  3.726963e+01    9.500841e+03
  3.729252e+01    9.558237e+03
  3.731541e+01    9.598626e+03
  3.733829e+01    9.649346e+03
  3.736118e+01    9.715953e+03
  3.738406e+01    9.784323e+03
  3.740695e+01    9.862116e+03
  3.742983e+01    9.951514e+03
  3.745272e+01    1.006552e+04
  3.747560e+01    1.021246e+04
  3.749849e+01    1.039512e+04
  3.752137e+01    1.062018e+04
  3.754426e+01    1.090410e+04
  3.756714e+01    1.126600e+04
  3.759003e+01    1.173488e+04
  3.761291e+01    1.236708e+04
  3.763580e+01    1.328133e+04
  3.765869e+01    1.465035e+04
  3.768157e+01    1.676257e+04
  3.770446e+01    2.017815e+04
  3.772734e+01    2.584493e+04
  3.775023e+01    3.497453e+04
  3.777311e+01    4.822944e+04
  3.779600e+01    6.392322e+04
  3.781888e+01    7.689832e+04
  3.784177e+01    8.184105e+04
  3.786465e+01    7.691303e+04
  3.788754e+01    6.437786e+04
  3.791042e+01    4.908909e+04
  3.793331e+01    3.581925e+04
  3.795620e+01    2.647785e+04
  3.797908e+01    2.057394e+04
  3.800197e+01    1.701773e+04
  3.802485e+01    1.482929e+04
  3.804774e+01    1.341922e+04
  3.807062e+01    1.247946e+04
  3.809351e+01    1.181914e+04
  3.811639e+01    1.132955e+04
  3.813928e+01    1.095777e+04
  3.816216e+01    1.065794e+04
  3.818505e+01    1.043226e+04
  3.820793e+01    1.025835e+04
  3.823082e+01    1.010954e+04
  3.825371e+01    9.991413e+03
  3.827659e+01    9.893661e+03
  3.829948e+01    9.820002e+03
  3.832236e+01    9.752575e+03
  3.834525e+01    9.691177e+03
  3.836813e+01    9.645962e+03
  3.839102e+01    9.609798e+03
  3.841390e+01    9.571688e+03
  3.843679e+01    9.535253e+03
  3.845967e+01    9.522973e+03
  3.848256e+01    9.504912e+03
  3.850544e+01    9.493387e+03
  3.852833e+01    9.474153e+03
  3.855121e+01    9.448161e+03
  3.857410e+01    9.432624e+03
  3.859699e+01    9.414233e+03
  3.861987e+01    9.393578e+03
  3.864276e+01    9.374543e+03
  3.866564e+01    9.361111e+03
  3.868853e+01    9.352105e+03
  3.871141e+01    9.339763e+03
  3.873430e+01    9.336059e+03
  3.875718e+01    9.331298e+03
  3.878007e+01    9.331838e+03
  3.880295e+01    9.319305e+03
  3.882584e+01    9.332659e+03
  3.884872e+01    9.357363e+03
  3.887161e+01    9.403752e+03
  3.889450e+01    9.487919e+03
  3.891738e+01    9.630021e+03
  3.894027e+01    9.870986e+03
  3.896315e+01    1.025277e+04
  3.898604e+01    1.080949e+04
  3.900892e+01    1.143168e+04
  3.903181e+01    1.188783e+04
  3.905469e+01    1.199837e+04
  3.907758e+01    1.172265e+04
  3.910046e+01    1.118509e+04
  3.912335e+01    1.057930e+04
  3.914623e+01    1.006486e+04
  3.916912e+01    9.711984e+03
  3.919201e+01    9.505604e+03
  3.921489e+01    9.354633e+03
  3.923778e+01    9.266947e+03
  3.926066e+01    9.212718e+03
  3.928355e+01    9.173390e+03
  3.930643e+01    9.147152e+03
  3.932932e+01    9.120316e+03
  3.935220e+01    9.102440e+03
  3.937509e+01    9.096463e+03
  3.939797e+01    9.091040e+03
  3.942086e+01    9.078525e+03
  3.944374e+01    9.055469e+03
  3.946663e+01    9.051283e+03
  3.948951e+01    9.039670e+03
  3.951240e+01    9.024159e+03
  3.953529e+01    9.006981e+03
  3.955817e+01    9.010042e+03
  3.958106e+01    9.009156e+03
  3.960394e+01    9.004185e+03
  3.962683e+01    8.987809e+03
  3.964971e+01    8.975276e+03
  3.967260e+01    8.972840e+03
  3.969548e+01    8.974602e+03
  3.971837e+01    8.967922e+03
  3.974125e+01    8.956592e+03
  3.976414e+01    8.947902e+03
  3.978702e+01    8.943207e+03
  3.980991e+01    8.940073e+03
  3.983280e+01    8.942680e+03
  3.985568e+01    8.947928e+03
  3.987857e+01    8.957327e+03
  3.990145e+01    8.975005e+03
  3.992434e+01    8.967170e+03
  3.994722e+01    8.960606e+03
  3.997011e+01    8.960417e+03
  3.999299e+01    8.948878e+03
  4.001588e+01    8.952869e+03
  4.003876e+01    8.963703e+03
  4.006165e+01    8.990354e+03
  4.008453e+01    9.027610e+03
  4.010742e+01    9.081521e+03
  4.013031e+01    9.173765e+03
  4.015319e+01    9.301389e+03
  4.017608e+01    9.469825e+03
  4.019896e+01    9.620839e+03
  4.022185e+01    9.698185e+03
  4.024473e+01    9.685492e+03
  4.026762e+01    9.587328e+03
  4.029050e+01    9.449297e+03
  4.031339e+01    9.324929e+03
  4.033627e+01    9.232999e+03
  4.035916e+01    9.186830e+03
  4.038204e+01    9.177545e+03
  4.040493e+01    9.187816e+03
  4.042782e+01    9.205223e+03
  4.045070e+01    9.228700e+03
  4.047359e+01    9.247699e+03
  4.049647e+01    9.260896e+03
  4.051936e+01    9.280023e+03
  4.054224e+01    9.291417e+03
  4.056513e+01    9.293350e+03
  4.058801e+01    9.297450e+03
  4.061090e+01    9.296964e+03
  4.063378e+01    9.285490e+03
  4.065667e+01    9.266205e+03
  4.067955e+01    9.239386e+03
  4.070244e+01    9.206904e+03
  4.072532e+01    9.172917e+03
  4.074821e+01    9.139555e+03
  4.077110e+01    9.105765e+03
  4.079398e+01    9.076197e+03
  4.081687e+01    9.036291e+03
  4.083975e+01    9.002172e+03
  4.086264e+01    8.974153e+03
  4.088552e+01    8.959073e+03
  4.090841e+01    8.937924e+03
  4.093129e+01    8.922090e+03
  4.095418e+01    8.922548e+03
  4.097706e+01    8.907521e+03
  4.099995e+01    8.893181e+03
  4.102283e+01    8.894097e+03
  4.104572e+01    8.909386e+03
  4.106861e+01    8.920646e+03
  4.109149e+01    8.946408e+03
  4.111438e+01    8.990735e+03
  4.113726e+01    9.047896e+03
  4.116015e+01    9.125687e+03
  4.118303e+01    9.252739e+03
  4.120592e+01    9.447784e+03
  4.122880e+01    9.759021e+03
  4.125169e+01    1.026418e+04
  4.127457e+01    1.109043e+04
  4.129746e+01    1.235300e+04
  4.132034e+01    1.400436e+04
  4.134323e+01    1.562155e+04
  4.136612e+01    1.656767e+04
  4.138900e+01    1.647009e+04
  4.141189e+01    1.542153e+04
  4.143477e+01    1.382672e+04
  4.145766e+01    1.225328e+04
  4.148054e+01    1.105849e+04
  4.150343e+01    1.028002e+04
  4.152631e+01    9.809916e+03
  4.154920e+01    9.538056e+03
  4.157208e+01    9.369732e+03
  4.159497e+01    9.265602e+03
  4.161785e+01    9.209621e+03
  4.164074e+01    9.177092e+03
  4.166362e+01    9.145870e+03
  4.168651e+01    9.126781e+03
  4.170940e+01    9.119417e+03
  4.173228e+01    9.116581e+03
  4.175517e+01    9.104214e+03
  4.177805e+01    9.091063e+03
  4.180094e+01    9.080094e+03
  4.182382e+01    9.060403e+03
  4.184671e+01    9.036474e+03
  4.186959e+01    9.015122e+03
  4.189248e+01    8.996545e+03
  4.191536e+01    8.974145e+03
  4.193825e+01    8.955760e+03
  4.196113e+01    8.947038e+03
  4.198402e+01    8.937603e+03
  4.200691e+01    8.928468e+03
  4.202979e+01    8.925023e+03
  4.205268e+01    8.912411e+03
  4.207556e+01    8.893441e+03
  4.209845e+01    8.893192e+03
  4.212133e+01    8.899469e+03
  4.214422e+01    8.895001e+03
  4.216710e+01    8.894830e+03
  4.218999e+01    8.905859e+03
  4.221287e+01    8.911618e+03
  4.223576e+01    8.907926e+03
  4.225864e+01    8.923056e+03
  4.228153e+01    8.935493e+03
  4.230442e+01    8.958070e+03
  4.232730e+01    9.003199e+03
  4.235019e+01    9.075153e+03
  4.237307e+01    9.183722e+03
  4.239596e+01    9.349087e+03
  4.241884e+01    9.619820e+03
  4.244173e+01    9.980224e+03
  4.246461e+01    1.032505e+04
  4.248750e+01    1.051481e+04
  4.251038e+01    1.048361e+04
  4.253327e+01    1.023744e+04
  4.255615e+01    9.862166e+03
  4.257904e+01    9.489683e+03
  4.260192e+01    9.203719e+03
  4.262481e+01    9.003281e+03
  4.264770e+01    8.866104e+03
  4.267058e+01    8.788042e+03
  4.269347e+01    8.738230e+03
  4.271635e+01    8.692108e+03
  4.273924e+01    8.656485e+03
  4.276212e+01    8.629652e+03
  4.278501e+01    8.603414e+03
  4.280789e+01    8.578075e+03
  4.283078e+01    8.560981e+03
  4.285366e+01    8.553978e+03
  4.287655e+01    8.530933e+03
  4.289943e+01    8.520439e+03
  4.292232e+01    8.510532e+03
  4.294521e+01    8.512478e+03
  4.296809e+01    8.497186e+03
  4.299098e+01    8.484050e+03
  4.301386e+01    8.489845e+03
  4.303675e+01    8.490482e+03
  4.305963e+01    8.488163e+03
  4.308252e+01    8.488919e+03
  4.310540e+01    8.495832e+03
  4.312829e+01    8.493468e+03
  4.315117e+01    8.502560e+03
  4.317406e+01    8.502141e+03
  4.319694e+01    8.520773e+03
  4.321983e+01    8.531782e+03
  4.324272e+01    8.547547e+03
  4.326560e+01    8.565081e+03
  4.328849e+01    8.583119e+03
  4.331137e+01    8.627899e+03
  4.333426e+01    8.677770e+03
  4.335714e+01    8.735216e+03
  4.338003e+01    8.815006e+03
  4.340291e+01    8.936269e+03
  4.342580e+01    9.123247e+03
  4.344868e+01    9.386160e+03
  4.347157e+01    9.804619e+03
  4.349445e+01    1.051522e+04
  4.351734e+01    1.159691e+04
  4.354022e+01    1.299090e+04
  4.356311e+01    1.439613e+04
  4.358600e+01    1.519779e+04
  4.360888e+01    1.513301e+04
  4.363177e+01    1.430183e+04
  4.365465e+01    1.297435e+04
  4.367754e+01    1.164630e+04
  4.370042e+01    1.064341e+04
  4.372331e+01    9.986467e+03
  4.374619e+01    9.606694e+03
  4.376908e+01    9.396772e+03
  4.379196e+01    9.272023e+03
  4.381485e+01    9.224915e+03
  4.383773e+01    9.204377e+03
  4.386062e+01    9.202948e+03
  4.388351e+01    9.230004e+03
  4.390639e+01    9.272784e+03
  4.392928e+01    9.324062e+03
  4.395216e+01    9.381246e+03
  4.397505e+01    9.435116e+03
  4.399793e+01    9.487437e+03
  4.402082e+01    9.543049e+03
  4.404370e+01    9.593109e+03
  4.406659e+01    9.618306e+03
  4.408947e+01    9.645618e+03
  4.411236e+01    9.707880e+03
  4.413524e+01    9.750418e+03
  4.415813e+01    9.782949e+03
  4.418102e+01    9.868620e+03
  4.420390e+01    9.963586e+03
  4.422679e+01    1.004987e+04
  4.424967e+01    1.014802e+04
  4.427256e+01    1.027970e+04
  4.429544e+01    1.042237e+04
  4.431833e+01    1.056692e+04
  4.434121e+01    1.073128e+04
  4.436410e+01    1.094359e+04
  4.438698e+01    1.118196e+04
  4.440987e+01    1.142077e+04
  4.443275e+01    1.174030e+04
  4.445564e+01    1.214645e+04
  4.447853e+01    1.269616e+04
  4.450141e+01    1.346400e+04
  4.452430e+01    1.460031e+04
  4.454718e+01    1.638358e+04
  4.457007e+01    1.922712e+04
  4.459295e+01    2.362651e+04
  4.461584e+01    2.933691e+04
  4.463872e+01    3.488294e+04
  4.466161e+01    3.809684e+04
  4.468449e+01    3.775929e+04
  4.470738e+01    3.418452e+04
  4.473026e+01    2.869464e+04
  4.475315e+01    2.313402e+04
  4.477603e+01    1.876545e+04
  4.479892e+01    1.585820e+04
  4.482181e+01    1.403209e+04
  4.484469e+01    1.286066e+04
  4.486758e+01    1.206111e+04
  4.489046e+01    1.149011e+04
  4.491335e+01    1.107385e+04
  4.493623e+01    1.076574e+04
  4.495912e+01    1.049487e+04
  4.498200e+01    1.027741e+04
  4.500489e+01    1.006788e+04
  4.502777e+01    9.912924e+03
  4.505066e+01    9.776546e+03
  4.507354e+01    9.654527e+03
  4.509643e+01    9.550188e+03
  4.511932e+01    9.451453e+03
  4.514220e+01    9.353498e+03
  4.516509e+01    9.252513e+03
  4.518797e+01    9.191607e+03
  4.521086e+01    9.131670e+03
  4.523374e+01    9.067663e+03
  4.525663e+01    9.028403e+03
  4.527951e+01    8.986758e+03
  4.530240e+01    8.950938e+03
  4.532528e+01    8.916669e+03
  4.534817e+01    8.906569e+03
  4.537105e+01    8.895711e+03
  4.539394e+01    8.877637e+03
  4.541683e+01    8.870133e+03
  4.543971e+01    8.889104e+03
  4.546260e+01    8.929400e+03
  4.548548e+01    8.982424e+03
  4.550837e+01    9.054927e+03
  4.553125e+01    9.180091e+03
  4.555414e+01    9.374879e+03
  4.557702e+01    9.679085e+03
  4.559991e+01    1.015631e+04
  4.562279e+01    1.092101e+04
  4.564568e+01    1.215309e+04
  4.566856e+01    1.378773e+04
  4.569145e+01    1.542930e+04
  4.571433e+01    1.645205e+04
  4.573722e+01    1.644736e+04
  4.576011e+01    1.549729e+04
  4.578299e+01    1.396098e+04
  4.580588e+01    1.234545e+04
  4.582876e+01    1.104940e+04
  4.585165e+01    1.020175e+04
  4.587453e+01    9.672737e+03
  4.589742e+01    9.348567e+03
  4.592030e+01    9.119208e+03
  4.594319e+01    8.980342e+03
  4.596607e+01    8.877926e+03
  4.598896e+01    8.798590e+03
  4.601184e+01    8.739690e+03
  4.603473e+01    8.691194e+03
  4.605762e+01    8.670037e+03
  4.608050e+01    8.630562e+03
  4.610339e+01    8.608401e+03
  4.612627e+01    8.608017e+03
  4.614916e+01    8.581578e+03
  4.617204e+01    8.571814e+03
  4.619493e+01    8.566647e+03
  4.621781e+01    8.560690e+03
  4.624070e+01    8.542009e+03
  4.626358e+01    8.546975e+03
  4.628647e+01    8.531171e+03
  4.630935e+01    8.520838e+03
  4.633224e+01    8.531469e+03
  4.635513e+01    8.523218e+03
  4.637801e+01    8.512295e+03
  4.640090e+01    8.513790e+03
  4.642378e+01    8.505792e+03
  4.644667e+01    8.507510e+03
  4.646955e+01    8.505777e+03
  4.649244e+01    8.526631e+03
  4.651532e+01    8.537208e+03
  4.653821e+01    8.554802e+03
  4.656109e+01    8.579323e+03
  4.658398e+01    8.630083e+03
  4.660686e+01    8.712326e+03
  4.662975e+01    8.837323e+03
  4.665263e+01    9.043555e+03
  4.667552e+01    9.374918e+03
  4.669841e+01    9.836979e+03
  4.672129e+01    1.035563e+04
  4.674418e+01    1.071403e+04
  4.676706e+01    1.078015e+04
  4.678995e+01    1.058413e+04
  4.681283e+01    1.016191e+04
  4.683572e+01    9.699188e+03
  4.685860e+01    9.301747e+03
  4.688149e+01    9.048488e+03
  4.690437e+01    8.897441e+03
  4.692726e+01    8.808458e+03
  4.695014e+01    8.751966e+03
  4.697303e+01    8.720812e+03
  4.699592e+01    8.716591e+03
  4.701880e+01    8.719416e+03
  4.704169e+01    8.745376e+03
  4.706457e+01    8.769319e+03
  4.708746e+01    8.781205e+03
  4.711034e+01    8.791573e+03
  4.713323e+01    8.799357e+03
  4.715611e+01    8.773382e+03
  4.717900e+01    8.771754e+03
  4.720188e+01    8.760474e+03
  4.722477e+01    8.738853e+03
  4.724765e+01    8.737422e+03
  4.727054e+01    8.712022e+03
  4.729343e+01    8.708596e+03
  4.731631e+01    8.701785e+03
  4.733920e+01    8.680282e+03
  4.736208e+01    8.693976e+03
  4.738497e+01    8.716607e+03
  4.740785e+01    8.748328e+03
  4.743074e+01    8.776723e+03
  4.745362e+01    8.780323e+03
  4.747651e+01    8.839432e+03
  4.749939e+01    8.922768e+03
  4.752228e+01    8.978715e+03
  4.754516e+01    9.045263e+03
  4.756805e+01    9.039595e+03
  4.759094e+01    9.187846e+03
  4.761382e+01    9.352325e+03
  4.763671e+01    9.476685e+03
  4.765959e+01    9.591504e+03
  4.768248e+01    9.837557e+03
  4.770536e+01    1.014165e+04
  4.772825e+01    1.034562e+04
  4.775113e+01    1.069003e+04
  4.777402e+01    1.055993e+04
  4.779690e+01    1.039644e+04
  4.781979e+01    9.775139e+03
  4.784267e+01    9.113581e+03
  4.786556e+01    7.611422e+03
  4.788844e+01    3.632302e+03