File: Output/ROCK_XRD/WAM39B_integrated/rampe1/wam39b_rampe_1_xrd_000038_integrated.dat
# == pyFAI calibration ==
# Distance Sample to Detector: 0.261615 m
# PONI: 2.023e-01, 2.348e-01 m
# Rotations: -0.026380 0.002005 0.000000 rad
#
# == Fit2d calibration ==
# Distance Sample-beamCenter: 261.707 mm
# Center: x=6119.331, y=5134.776 pix
# Tilt: 1.516 deg  TiltPlanRot: 4.347 deg
#
# Detector Rayonix SX165	 PixelSize= 3.950e-05, 3.950e-05 m
#    Detector has a mask: True
#    Detector has a dark current: False
#    detector has a flat field: False
#
# Wavelength: 1.12713e-10 m
# Mask applied: from detector
# Dark current applied: False
# Flat field applied: False
# Polarization factor: None
# Normalization factor: 1.0
# --> ROCK\\WAM39B_integrated\wam39b_rampe_1_xrd_000038_integrated.dat
#       2th_deg             I
  2.502596e+01    3.919025e+03
  2.504885e+01    1.031043e+04
  2.507173e+01    1.390724e+04
  2.509462e+01    1.479855e+04
  2.511750e+01    1.618595e+04
  2.514039e+01    1.675780e+04
  2.516327e+01    1.669455e+04
  2.518616e+01    1.655649e+04
  2.520905e+01    1.644082e+04
  2.523193e+01    1.623220e+04
  2.525482e+01    1.628218e+04
  2.527770e+01    1.658228e+04
  2.530059e+01    1.651282e+04
  2.532347e+01    1.633599e+04
  2.534636e+01    1.616098e+04
  2.536924e+01    1.605198e+04
  2.539213e+01    1.601749e+04
  2.541501e+01    1.599719e+04
  2.543790e+01    1.597650e+04
  2.546078e+01    1.598402e+04
  2.548367e+01    1.593541e+04
  2.550656e+01    1.577033e+04
  2.552944e+01    1.564434e+04
  2.555233e+01    1.577880e+04
  2.557521e+01    1.583288e+04
  2.559810e+01    1.575641e+04
  2.562098e+01    1.575675e+04
  2.564387e+01    1.577334e+04
  2.566675e+01    1.576792e+04
  2.568964e+01    1.570734e+04
  2.571252e+01    1.565624e+04
  2.573541e+01    1.564910e+04
  2.575829e+01    1.560521e+04
  2.578118e+01    1.552732e+04
  2.580407e+01    1.551117e+04
  2.582695e+01    1.550933e+04
  2.584984e+01    1.549250e+04
  2.587272e+01    1.548427e+04
  2.589561e+01    1.554765e+04
  2.591849e+01    1.556740e+04
  2.594138e+01    1.561397e+04
  2.596426e+01    1.572979e+04
  2.598715e+01    1.580185e+04
  2.601003e+01    1.599026e+04
  2.603292e+01    1.618309e+04
  2.605580e+01    1.643475e+04
  2.607869e+01    1.683366e+04
  2.610157e+01    1.740018e+04
  2.612446e+01    1.826166e+04
  2.614735e+01    1.961049e+04
  2.617023e+01    2.174482e+04
  2.619312e+01    2.522122e+04
  2.621600e+01    3.062519e+04
  2.623889e+01    3.792385e+04
  2.626177e+01    4.603460e+04
  2.628466e+01    5.155969e+04
  2.630754e+01    5.118491e+04
  2.633043e+01    4.445504e+04
  2.635331e+01    3.536024e+04
  2.637620e+01    2.787454e+04
  2.639908e+01    2.301818e+04
  2.642197e+01    2.013602e+04
  2.644486e+01    1.839388e+04
  2.646774e+01    1.731160e+04
  2.649063e+01    1.650912e+04
  2.651351e+01    1.599486e+04
  2.653640e+01    1.560766e+04
  2.655928e+01    1.531708e+04
  2.658217e+01    1.508468e+04
  2.660505e+01    1.491625e+04
  2.662794e+01    1.479226e+04
  2.665082e+01    1.466676e+04
  2.667371e+01    1.456351e+04
  2.669659e+01    1.447079e+04
  2.671948e+01    1.438361e+04
  2.674237e+01    1.431394e+04
  2.676525e+01    1.425296e+04
  2.678814e+01    1.418632e+04
  2.681102e+01    1.412889e+04
  2.683391e+01    1.406646e+04
  2.685679e+01    1.402147e+04
  2.687968e+01    1.399347e+04
  2.690256e+01    1.391985e+04
  2.692545e+01    1.387136e+04
  2.694833e+01    1.381874e+04
  2.697122e+01    1.377179e+04
  2.699410e+01    1.373719e+04
  2.701699e+01    1.372325e+04
  2.703988e+01    1.365601e+04
  2.706276e+01    1.361662e+04
  2.708565e+01    1.360021e+04
  2.710853e+01    1.356779e+04
  2.713142e+01    1.353125e+04
  2.715430e+01    1.349003e+04
  2.717719e+01    1.344761e+04
  2.720007e+01    1.339744e+04
  2.722296e+01    1.336135e+04
  2.724584e+01    1.330950e+04
  2.726873e+01    1.329229e+04
  2.729161e+01    1.326085e+04
  2.731450e+01    1.322607e+04
  2.733738e+01    1.318023e+04
  2.736027e+01    1.314333e+04
  2.738316e+01    1.310315e+04
  2.740604e+01    1.306395e+04
  2.742893e+01    1.304314e+04
  2.745181e+01    1.303315e+04
  2.747470e+01    1.300596e+04
  2.749758e+01    1.297987e+04
  2.752047e+01    1.294836e+04
  2.754335e+01    1.292497e+04
  2.756624e+01    1.291803e+04
  2.758912e+01    1.290438e+04
  2.761201e+01    1.287904e+04
  2.763489e+01    1.285573e+04
  2.765778e+01    1.285673e+04
  2.768067e+01    1.286946e+04
  2.770355e+01    1.290305e+04
  2.772644e+01    1.293283e+04
  2.774932e+01    1.299014e+04
  2.777221e+01    1.313181e+04
  2.779509e+01    1.338225e+04
  2.781798e+01    1.382108e+04
  2.784086e+01    1.448982e+04
  2.786375e+01    1.540426e+04
  2.788663e+01    1.631813e+04
  2.790952e+01    1.680331e+04
  2.793240e+01    1.657744e+04
  2.795529e+01    1.573426e+04
  2.797818e+01    1.469760e+04
  2.800106e+01    1.382154e+04
  2.802395e+01    1.323367e+04
  2.804683e+01    1.286552e+04
  2.806972e+01    1.262426e+04
  2.809260e+01    1.246783e+04
  2.811549e+01    1.235141e+04
  2.813837e+01    1.225673e+04
  2.816126e+01    1.217819e+04
  2.818414e+01    1.211417e+04
  2.820703e+01    1.206132e+04
  2.822991e+01    1.200498e+04
  2.825280e+01    1.194904e+04
  2.827568e+01    1.190420e+04
  2.829857e+01    1.187051e+04
  2.832146e+01    1.183823e+04
  2.834434e+01    1.178614e+04
  2.836723e+01    1.174191e+04
  2.839011e+01    1.170268e+04
  2.841300e+01    1.165541e+04
  2.843588e+01    1.162152e+04
  2.845877e+01    1.158184e+04
  2.848165e+01    1.154209e+04
  2.850454e+01    1.151759e+04
  2.852742e+01    1.149768e+04
  2.855031e+01    1.147413e+04
  2.857319e+01    1.142221e+04
  2.859608e+01    1.137978e+04
  2.861897e+01    1.133660e+04
  2.864185e+01    1.128888e+04
  2.866474e+01    1.125986e+04
  2.868762e+01    1.121433e+04
  2.871051e+01    1.117742e+04
  2.873339e+01    1.115265e+04
  2.875628e+01    1.111574e+04
  2.877916e+01    1.107022e+04
  2.880205e+01    1.102991e+04
  2.882493e+01    1.099501e+04
  2.884782e+01    1.094910e+04
  2.887070e+01    1.091255e+04
  2.889359e+01    1.088119e+04
  2.891648e+01    1.084350e+04
  2.893936e+01    1.079775e+04
  2.896225e+01    1.075363e+04
  2.898513e+01    1.071571e+04
  2.900802e+01    1.068006e+04
  2.903090e+01    1.063658e+04
  2.905379e+01    1.059167e+04
  2.907667e+01    1.056231e+04
  2.909956e+01    1.052305e+04
  2.912244e+01    1.048498e+04
  2.914533e+01    1.045350e+04
  2.916821e+01    1.042432e+04
  2.919110e+01    1.039772e+04
  2.921398e+01    1.036490e+04
  2.923687e+01    1.034241e+04
  2.925976e+01    1.032420e+04
  2.928264e+01    1.031969e+04
  2.930553e+01    1.033505e+04
  2.932841e+01    1.037523e+04
  2.935130e+01    1.047433e+04
  2.937418e+01    1.065341e+04
  2.939707e+01    1.093492e+04
  2.941995e+01    1.126190e+04
  2.944284e+01    1.152148e+04
  2.946572e+01    1.157327e+04
  2.948861e+01    1.133861e+04
  2.951149e+01    1.094394e+04
  2.953438e+01    1.056126e+04
  2.955727e+01    1.026464e+04
  2.958015e+01    1.007069e+04
  2.960304e+01    9.954273e+03
  2.962592e+01    9.869595e+03
  2.964881e+01    9.802010e+03
  2.967169e+01    9.748311e+03
  2.969458e+01    9.713095e+03
  2.971746e+01    9.678381e+03
  2.974035e+01    9.646400e+03
  2.976323e+01    9.616468e+03
  2.978612e+01    9.595285e+03
  2.980900e+01    9.578510e+03
  2.983189e+01    9.562379e+03
  2.985478e+01    9.547977e+03
  2.987766e+01    9.521014e+03
  2.990055e+01    9.508924e+03
  2.992343e+01    9.512709e+03
  2.994632e+01    9.510173e+03
  2.996920e+01    9.510100e+03
  2.999209e+01    9.519101e+03
  3.001497e+01    9.531134e+03
  3.003786e+01    9.542885e+03
  3.006074e+01    9.554747e+03
  3.008363e+01    9.580909e+03
  3.010651e+01    9.621019e+03
  3.012940e+01    9.673924e+03
  3.015228e+01    9.723870e+03
  3.017517e+01    9.806916e+03
  3.019806e+01    9.944595e+03
  3.022094e+01    1.011444e+04
  3.024383e+01    1.037435e+04
  3.026671e+01    1.078386e+04
  3.028960e+01    1.143826e+04
  3.031248e+01    1.254822e+04
  3.033537e+01    1.448851e+04
  3.035825e+01    1.779965e+04
  3.038114e+01    2.337888e+04
  3.040402e+01    3.167067e+04
  3.042691e+01    4.321557e+04
  3.044979e+01    5.316102e+04
  3.047268e+01    5.529393e+04
  3.049557e+01    4.838654e+04
  3.051845e+01    3.623277e+04
  3.054134e+01    2.503786e+04
  3.056422e+01    1.834023e+04
  3.058711e+01    1.478138e+04
  3.060999e+01    1.276173e+04
  3.063288e+01    1.159728e+04
  3.065576e+01    1.091193e+04
  3.067865e+01    1.050546e+04
  3.070153e+01    1.027583e+04
  3.072442e+01    1.017580e+04
  3.074730e+01    1.021704e+04
  3.077019e+01    1.041846e+04
  3.079308e+01    1.087816e+04
  3.081596e+01    1.174501e+04
  3.083885e+01    1.330611e+04
  3.086173e+01    1.585314e+04
  3.088462e+01    1.931332e+04
  3.090750e+01    2.269814e+04
  3.093039e+01    2.436978e+04
  3.095327e+01    2.335793e+04
  3.097616e+01    2.024720e+04
  3.099904e+01    1.656842e+04
  3.102193e+01    1.358497e+04
  3.104481e+01    1.164394e+04
  3.106770e+01    1.050976e+04
  3.109059e+01    9.850845e+03
  3.111347e+01    9.463344e+03
  3.113636e+01    9.221319e+03
  3.115924e+01    9.058292e+03
  3.118213e+01    8.934273e+03
  3.120501e+01    8.845894e+03
  3.122790e+01    8.769670e+03
  3.125078e+01    8.708504e+03
  3.127367e+01    8.653879e+03
  3.129655e+01    8.603413e+03
  3.131944e+01    8.565440e+03
  3.134232e+01    8.531155e+03
  3.136521e+01    8.501570e+03
  3.138809e+01    8.479103e+03
  3.141098e+01    8.458804e+03
  3.143387e+01    8.434809e+03
  3.145675e+01    8.410780e+03
  3.147964e+01    8.386060e+03
  3.150252e+01    8.354458e+03
  3.152541e+01    8.329992e+03
  3.154829e+01    8.305854e+03
  3.157118e+01    8.295438e+03
  3.159406e+01    8.283285e+03
  3.161695e+01    8.260079e+03
  3.163983e+01    8.233810e+03
  3.166272e+01    8.219113e+03
  3.168560e+01    8.206033e+03
  3.170849e+01    8.196412e+03
  3.173138e+01    8.179377e+03
  3.175426e+01    8.156941e+03
  3.177715e+01    8.138849e+03
  3.180003e+01    8.130706e+03
  3.182292e+01    8.120062e+03
  3.184580e+01    8.105332e+03
  3.186869e+01    8.089266e+03
  3.189157e+01    8.077468e+03
  3.191446e+01    8.063420e+03
  3.193734e+01    8.050814e+03
  3.196023e+01    8.036334e+03
  3.198311e+01    8.020422e+03
  3.200600e+01    8.011402e+03
  3.202889e+01    8.002774e+03
  3.205177e+01    7.994707e+03
  3.207466e+01    7.983804e+03
  3.209754e+01    7.963710e+03
  3.212043e+01    7.963030e+03
  3.214331e+01    7.968177e+03
  3.216620e+01    7.976901e+03
  3.218908e+01    7.988841e+03
  3.221197e+01    8.028199e+03
  3.223485e+01    8.114728e+03
  3.225774e+01    8.271522e+03
  3.228062e+01    8.523141e+03
  3.230351e+01    8.836959e+03
  3.232639e+01    9.103024e+03
  3.234928e+01    9.192955e+03
  3.237217e+01    9.051268e+03
  3.239505e+01    8.736622e+03
  3.241794e+01    8.397504e+03
  3.244082e+01    8.136692e+03
  3.246371e+01    7.978508e+03
  3.248659e+01    7.882674e+03
  3.250948e+01    7.823049e+03
  3.253236e+01    7.776826e+03
  3.255525e+01    7.749000e+03
  3.257813e+01    7.726167e+03
  3.260102e+01    7.704449e+03
  3.262390e+01    7.686663e+03
  3.264679e+01    7.672793e+03
  3.266968e+01    7.654183e+03
  3.269256e+01    7.642296e+03
  3.271545e+01    7.632337e+03
  3.273833e+01    7.620763e+03
  3.276122e+01    7.603844e+03
  3.278410e+01    7.590259e+03
  3.280699e+01    7.577091e+03
  3.282987e+01    7.570737e+03
  3.285276e+01    7.562490e+03
  3.287564e+01    7.544968e+03
  3.289853e+01    7.530828e+03
  3.292141e+01    7.517506e+03
  3.294430e+01    7.513231e+03
  3.296719e+01    7.501208e+03
  3.299007e+01    7.482728e+03
  3.301296e+01    7.474580e+03
  3.303584e+01    7.470816e+03
  3.305873e+01    7.460726e+03
  3.308161e+01    7.445484e+03
  3.310450e+01    7.443004e+03
  3.312738e+01    7.441881e+03
  3.315027e+01    7.439851e+03
  3.317315e+01    7.430592e+03
  3.319604e+01    7.423731e+03
  3.321892e+01    7.417517e+03
  3.324181e+01    7.411252e+03
  3.326469e+01    7.403966e+03
  3.328758e+01    7.403146e+03
  3.331047e+01    7.407110e+03
  3.333335e+01    7.404508e+03
  3.335624e+01    7.408204e+03
  3.337912e+01    7.416204e+03
  3.340201e+01    7.428516e+03
  3.342489e+01    7.454955e+03
  3.344778e+01    7.489558e+03
  3.347066e+01    7.531678e+03
  3.349355e+01    7.608446e+03
  3.351643e+01    7.725014e+03
  3.353932e+01    7.910467e+03
  3.356220e+01    8.245887e+03
  3.358509e+01    8.858295e+03
  3.360798e+01    9.933647e+03
  3.363086e+01    1.171255e+04
  3.365375e+01    1.423067e+04
  3.367663e+01    1.684080e+04
  3.369952e+01    1.832636e+04
  3.372240e+01    1.787896e+04
  3.374529e+01    1.579291e+04
  3.376817e+01    1.310524e+04
  3.379106e+01    1.082189e+04
  3.381394e+01    9.321256e+03
  3.383683e+01    8.442408e+03
  3.385971e+01    7.949110e+03
  3.388260e+01    7.668428e+03
  3.390549e+01    7.499248e+03
  3.392837e+01    7.381750e+03
  3.395126e+01    7.292805e+03
  3.397414e+01    7.233069e+03
  3.399703e+01    7.187567e+03
  3.401991e+01    7.153251e+03
  3.404280e+01    7.121993e+03
  3.406568e+01    7.090475e+03
  3.408857e+01    7.066798e+03
  3.411145e+01    7.047128e+03
  3.413434e+01    7.021079e+03
  3.415722e+01    7.007804e+03
  3.418011e+01    6.994469e+03
  3.420300e+01    6.975503e+03
  3.422588e+01    6.958954e+03
  3.424877e+01    6.949258e+03
  3.427165e+01    6.936612e+03
  3.429454e+01    6.922468e+03
  3.431742e+01    6.909022e+03
  3.434031e+01    6.900013e+03
  3.436319e+01    6.888151e+03
  3.438608e+01    6.872938e+03
  3.440896e+01    6.865791e+03
  3.443185e+01    6.859747e+03
  3.445473e+01    6.846945e+03
  3.447762e+01    6.834266e+03
  3.450050e+01    6.821854e+03
  3.452339e+01    6.808473e+03
  3.454628e+01    6.801122e+03
  3.456916e+01    6.790201e+03
  3.459205e+01    6.786557e+03
  3.461493e+01    6.774065e+03
  3.463782e+01    6.758093e+03
  3.466070e+01    6.749414e+03
  3.468359e+01    6.744601e+03
  3.470647e+01    6.736040e+03
  3.472936e+01    6.723947e+03
  3.475224e+01    6.713429e+03
  3.477513e+01    6.701554e+03
  3.479801e+01    6.690032e+03
  3.482090e+01    6.687689e+03
  3.484379e+01    6.675672e+03
  3.486667e+01    6.667860e+03
  3.488956e+01    6.659616e+03
  3.491244e+01    6.651913e+03
  3.493533e+01    6.646812e+03
  3.495821e+01    6.637155e+03
  3.498110e+01    6.625792e+03
  3.500398e+01    6.614319e+03
  3.502687e+01    6.611074e+03
  3.504975e+01    6.611123e+03
  3.507264e+01    6.604887e+03
  3.509552e+01    6.585646e+03
  3.511841e+01    6.585481e+03
  3.514130e+01    6.583035e+03
  3.516418e+01    6.579509e+03
  3.518707e+01    6.566466e+03
  3.520995e+01    6.559748e+03
  3.523284e+01    6.558690e+03
  3.525572e+01    6.544863e+03
  3.527861e+01    6.535097e+03
  3.530149e+01    6.528556e+03
  3.532438e+01    6.514145e+03
  3.534726e+01    6.501565e+03
  3.537015e+01    6.493545e+03
  3.539303e+01    6.481660e+03
  3.541592e+01    6.471985e+03
  3.543880e+01    6.466914e+03
  3.546169e+01    6.464085e+03
  3.548458e+01    6.458343e+03
  3.550746e+01    6.452482e+03
  3.553035e+01    6.445220e+03
  3.555323e+01    6.435907e+03
  3.557612e+01    6.425348e+03
  3.559900e+01    6.417726e+03
  3.562189e+01    6.413606e+03
  3.564477e+01    6.407232e+03
  3.566766e+01    6.406230e+03
  3.569054e+01    6.401968e+03
  3.571343e+01    6.396768e+03
  3.573631e+01    6.392627e+03
  3.575920e+01    6.381785e+03
  3.578209e+01    6.381931e+03
  3.580497e+01    6.386440e+03
  3.582786e+01    6.388457e+03
  3.585074e+01    6.388624e+03
  3.587363e+01    6.395286e+03
  3.589651e+01    6.395969e+03
  3.591940e+01    6.404220e+03
  3.594228e+01    6.409305e+03
  3.596517e+01    6.418051e+03
  3.598805e+01    6.429308e+03
  3.601094e+01    6.441715e+03
  3.603382e+01    6.457745e+03
  3.605671e+01    6.480049e+03
  3.607960e+01    6.512964e+03
  3.610248e+01    6.562650e+03
  3.612537e+01    6.647472e+03
  3.614825e+01    6.804361e+03
  3.617114e+01    7.077885e+03
  3.619402e+01    7.553596e+03
  3.621691e+01    8.332010e+03
  3.623979e+01    9.363998e+03
  3.626268e+01    1.033831e+04
  3.628556e+01    1.077851e+04
  3.630845e+01    1.046791e+04
  3.633133e+01    9.581888e+03
  3.635422e+01    8.546406e+03
  3.637710e+01    7.710272e+03
  3.639999e+01    7.176149e+03
  3.642288e+01    6.881225e+03
  3.644576e+01    6.720873e+03
  3.646865e+01    6.638194e+03
  3.649153e+01    6.590157e+03
  3.651442e+01    6.549970e+03
  3.653730e+01    6.537605e+03
  3.656019e+01    6.527487e+03
  3.658307e+01    6.513929e+03
  3.660596e+01    6.512578e+03
  3.662884e+01    6.512051e+03
  3.665173e+01    6.508161e+03
  3.667461e+01    6.509603e+03
  3.669750e+01    6.512786e+03
  3.672039e+01    6.515942e+03
  3.674327e+01    6.520155e+03
  3.676616e+01    6.527017e+03
  3.678904e+01    6.534886e+03
  3.681193e+01    6.551234e+03
  3.683481e+01    6.562907e+03
  3.685770e+01    6.565177e+03
  3.688058e+01    6.585777e+03
  3.690347e+01    6.600308e+03
  3.692635e+01    6.615627e+03
  3.694924e+01    6.626932e+03
  3.697212e+01    6.646167e+03
  3.699501e+01    6.673950e+03
  3.701790e+01    6.700974e+03
  3.704078e+01    6.728164e+03
  3.706367e+01    6.752511e+03
  3.708655e+01    6.784324e+03
  3.710944e+01    6.838342e+03
  3.713232e+01    6.887890e+03
  3.715521e+01    6.957922e+03
  3.717809e+01    7.042677e+03
  3.720098e+01    7.141346e+03
  3.722386e+01    7.266963e+03
  3.724675e+01    7.417159e+03
  3.726963e+01    7.623131e+03
  3.729252e+01    7.914344e+03
  3.731541e+01    8.333952e+03
  3.733829e+01    8.991883e+03
  3.736118e+01    1.009551e+04
  3.738406e+01    1.204656e+04
  3.740695e+01    1.562531e+04
  3.742983e+01    2.199966e+04
  3.745272e+01    3.221359e+04
  3.747560e+01    4.523473e+04
  3.749849e+01    5.635710e+04
  3.752137e+01    5.992066e+04
  3.754426e+01    5.444823e+04
  3.756714e+01    4.299609e+04
  3.759003e+01    3.048618e+04
  3.761291e+01    2.085234e+04
  3.763580e+01    1.496012e+04
  3.765869e+01    1.174019e+04
  3.768157e+01    9.990466e+03
  3.770446e+01    8.980691e+03
  3.772734e+01    8.356796e+03
  3.775023e+01    7.944558e+03
  3.777311e+01    7.657103e+03
  3.779600e+01    7.461582e+03
  3.781888e+01    7.306173e+03
  3.784177e+01    7.189712e+03
  3.786465e+01    7.101389e+03
  3.788754e+01    7.028454e+03
  3.791042e+01    6.971181e+03
  3.793331e+01    6.925378e+03
  3.795620e+01    6.882825e+03
  3.797908e+01    6.835759e+03
  3.800197e+01    6.795218e+03
  3.802485e+01    6.764972e+03
  3.804774e+01    6.740915e+03
  3.807062e+01    6.728622e+03
  3.809351e+01    6.705380e+03
  3.811639e+01    6.692651e+03
  3.813928e+01    6.680288e+03
  3.816216e+01    6.663443e+03
  3.818505e+01    6.650076e+03
  3.820793e+01    6.640564e+03
  3.823082e+01    6.627764e+03
  3.825371e+01    6.615207e+03
  3.827659e+01    6.613248e+03
  3.829948e+01    6.610295e+03
  3.832236e+01    6.604031e+03
  3.834525e+01    6.596913e+03
  3.836813e+01    6.600636e+03
  3.839102e+01    6.598162e+03
  3.841390e+01    6.600700e+03
  3.843679e+01    6.600686e+03
  3.845967e+01    6.603561e+03
  3.848256e+01    6.610904e+03
  3.850544e+01    6.628003e+03
  3.852833e+01    6.649678e+03
  3.855121e+01    6.681462e+03
  3.857410e+01    6.743429e+03
  3.859699e+01    6.847174e+03
  3.861987e+01    7.043590e+03
  3.864276e+01    7.377966e+03
  3.866564e+01    7.839771e+03
  3.868853e+01    8.303348e+03
  3.871141e+01    8.532590e+03
  3.873430e+01    8.434055e+03
  3.875718e+01    8.066728e+03
  3.878007e+01    7.604961e+03
  3.880295e+01    7.186801e+03
  3.882584e+01    6.912312e+03
  3.884872e+01    6.762753e+03
  3.887161e+01    6.678958e+03
  3.889450e+01    6.634526e+03
  3.891738e+01    6.602937e+03
  3.894027e+01    6.582870e+03
  3.896315e+01    6.567130e+03
  3.898604e+01    6.554761e+03
  3.900892e+01    6.543142e+03
  3.903181e+01    6.530741e+03
  3.905469e+01    6.525454e+03
  3.907758e+01    6.523979e+03
  3.910046e+01    6.524253e+03
  3.912335e+01    6.520581e+03
  3.914623e+01    6.517396e+03
  3.916912e+01    6.511709e+03
  3.919201e+01    6.510646e+03
  3.921489e+01    6.496320e+03
  3.923778e+01    6.500067e+03
  3.926066e+01    6.497336e+03
  3.928355e+01    6.489687e+03
  3.930643e+01    6.485905e+03
  3.932932e+01    6.475794e+03
  3.935220e+01    6.472365e+03
  3.937509e+01    6.469876e+03
  3.939797e+01    6.459023e+03
  3.942086e+01    6.450553e+03
  3.944374e+01    6.435495e+03
  3.946663e+01    6.429487e+03
  3.948951e+01    6.420833e+03
  3.951240e+01    6.414817e+03
  3.953529e+01    6.407093e+03
  3.955817e+01    6.405885e+03
  3.958106e+01    6.400225e+03
  3.960394e+01    6.394192e+03
  3.962683e+01    6.385484e+03
  3.964971e+01    6.384417e+03
  3.967260e+01    6.385551e+03
  3.969548e+01    6.383891e+03
  3.971837e+01    6.387058e+03
  3.974125e+01    6.396941e+03
  3.976414e+01    6.415994e+03
  3.978702e+01    6.464200e+03
  3.980991e+01    6.543454e+03
  3.983280e+01    6.660387e+03
  3.985568e+01    6.782979e+03
  3.987857e+01    6.850266e+03
  3.990145e+01    6.832905e+03
  3.992434e+01    6.713917e+03
  3.994722e+01    6.588544e+03
  3.997011e+01    6.486338e+03
  3.999299e+01    6.409681e+03
  4.001588e+01    6.367375e+03
  4.003876e+01    6.340444e+03
  4.006165e+01    6.327009e+03
  4.008453e+01    6.318613e+03
  4.010742e+01    6.316491e+03
  4.013031e+01    6.304689e+03
  4.015319e+01    6.297649e+03
  4.017608e+01    6.294001e+03
  4.019896e+01    6.288924e+03
  4.022185e+01    6.286099e+03
  4.024473e+01    6.287022e+03
  4.026762e+01    6.279879e+03
  4.029050e+01    6.269894e+03
  4.031339e+01    6.264724e+03
  4.033627e+01    6.265450e+03
  4.035916e+01    6.263352e+03
  4.038204e+01    6.257047e+03
  4.040493e+01    6.253080e+03
  4.042782e+01    6.251815e+03
  4.045070e+01    6.249691e+03
  4.047359e+01    6.252834e+03
  4.049647e+01    6.245124e+03
  4.051936e+01    6.241819e+03
  4.054224e+01    6.243127e+03
  4.056513e+01    6.241191e+03
  4.058801e+01    6.239125e+03
  4.061090e+01    6.242857e+03
  4.063378e+01    6.250339e+03
  4.065667e+01    6.250373e+03
  4.067955e+01    6.250880e+03
  4.070244e+01    6.258554e+03
  4.072532e+01    6.266481e+03
  4.074821e+01    6.286221e+03
  4.077110e+01    6.306673e+03
  4.079398e+01    6.335785e+03
  4.081687e+01    6.373131e+03
  4.083975e+01    6.444795e+03
  4.086264e+01    6.555297e+03
  4.088552e+01    6.752782e+03
  4.090841e+01    7.127950e+03
  4.093129e+01    7.798689e+03
  4.095418e+01    8.887548e+03
  4.097706e+01    1.027161e+04
  4.099995e+01    1.144873e+04
  4.102283e+01    1.180053e+04
  4.104572e+01    1.123175e+04
  4.106861e+01    1.006020e+04
  4.109149e+01    8.737874e+03
  4.111438e+01    7.699829e+03
  4.113726e+01    7.053146e+03
  4.116015e+01    6.699998e+03
  4.118303e+01    6.507003e+03
  4.120592e+01    6.394950e+03
  4.122880e+01    6.334135e+03
  4.125169e+01    6.293227e+03
  4.127457e+01    6.261401e+03
  4.129746e+01    6.241467e+03
  4.132034e+01    6.221884e+03
  4.134323e+01    6.206252e+03
  4.136612e+01    6.197775e+03
  4.138900e+01    6.191311e+03
  4.141189e+01    6.182695e+03
  4.143477e+01    6.168929e+03
  4.145766e+01    6.162952e+03
  4.148054e+01    6.155458e+03
  4.150343e+01    6.157069e+03
  4.152631e+01    6.152228e+03
  4.154920e+01    6.151797e+03
  4.157208e+01    6.150407e+03
  4.159497e+01    6.156997e+03
  4.161785e+01    6.160686e+03
  4.164074e+01    6.154498e+03
  4.166362e+01    6.149921e+03
  4.168651e+01    6.153604e+03
  4.170940e+01    6.143601e+03
  4.173228e+01    6.133432e+03
  4.175517e+01    6.129963e+03
  4.177805e+01    6.124509e+03
  4.180094e+01    6.122458e+03
  4.182382e+01    6.120125e+03
  4.184671e+01    6.119830e+03
  4.186959e+01    6.126374e+03
  4.189248e+01    6.134826e+03
  4.191536e+01    6.145079e+03
  4.193825e+01    6.154954e+03
  4.196113e+01    6.170544e+03
  4.198402e+01    6.198648e+03
  4.200691e+01    6.253706e+03
  4.202979e+01    6.358569e+03
  4.205268e+01    6.532651e+03
  4.207556e+01    6.797945e+03
  4.209845e+01    7.091937e+03
  4.212133e+01    7.270900e+03
  4.214422e+01    7.253277e+03
  4.216710e+01    7.073289e+03
  4.218999e+01    6.796807e+03
  4.221287e+01    6.533066e+03
  4.223576e+01    6.348175e+03
  4.225864e+01    6.240936e+03
  4.228153e+01    6.177706e+03
  4.230442e+01    6.149896e+03
  4.232730e+01    6.138491e+03
  4.235019e+01    6.127881e+03
  4.237307e+01    6.117703e+03
  4.239596e+01    6.108084e+03
  4.241884e+01    6.105862e+03
  4.244173e+01    6.105252e+03
  4.246461e+01    6.102815e+03
  4.248750e+01    6.093364e+03
  4.251038e+01    6.095613e+03
  4.253327e+01    6.097134e+03
  4.255615e+01    6.093534e+03
  4.257904e+01    6.084510e+03
  4.260192e+01    6.086030e+03
  4.262481e+01    6.087688e+03
  4.264770e+01    6.088687e+03
  4.267058e+01    6.088685e+03
  4.269347e+01    6.092618e+03
  4.271635e+01    6.100143e+03
  4.273924e+01    6.101239e+03
  4.276212e+01    6.111919e+03
  4.278501e+01    6.114746e+03
  4.280789e+01    6.115118e+03
  4.283078e+01    6.112951e+03
  4.285366e+01    6.126033e+03
  4.287655e+01    6.141561e+03
  4.289943e+01    6.160611e+03
  4.292232e+01    6.179838e+03
  4.294521e+01    6.199208e+03
  4.296809e+01    6.213451e+03
  4.299098e+01    6.241590e+03
  4.301386e+01    6.276746e+03
  4.303675e+01    6.328393e+03
  4.305963e+01    6.422307e+03
  4.308252e+01    6.582779e+03
  4.310540e+01    6.887224e+03
  4.312829e+01    7.421351e+03
  4.315117e+01    8.304970e+03
  4.317406e+01    9.464111e+03
  4.319694e+01    1.050299e+04
  4.321983e+01    1.090425e+04
  4.324272e+01    1.054929e+04
  4.326560e+01    9.651666e+03
  4.328849e+01    8.578532e+03
  4.331137e+01    7.715904e+03
  4.333426e+01    7.184800e+03
  4.335714e+01    6.949622e+03
  4.338003e+01    6.880176e+03
  4.340291e+01    6.935774e+03
  4.342580e+01    7.138040e+03
  4.344868e+01    7.523525e+03
  4.347157e+01    8.240312e+03
  4.349445e+01    9.623203e+03
  4.351734e+01    1.231802e+04
  4.354022e+01    1.673296e+04
  4.356311e+01    2.143608e+04
  4.358600e+01    2.469976e+04
  4.360888e+01    2.508738e+04
  4.363177e+01    2.231858e+04
  4.365465e+01    1.729241e+04
  4.367754e+01    1.258812e+04
  4.370042e+01    9.704187e+03
  4.372331e+01    8.219099e+03
  4.374619e+01    7.438514e+03
  4.376908e+01    7.011878e+03
  4.379196e+01    6.745006e+03
  4.381485e+01    6.597168e+03
  4.383773e+01    6.497724e+03
  4.386062e+01    6.434326e+03
  4.388351e+01    6.395945e+03
  4.390639e+01    6.367634e+03
  4.392928e+01    6.348270e+03
  4.395216e+01    6.354957e+03
  4.397505e+01    6.370146e+03
  4.399793e+01    6.400703e+03
  4.402082e+01    6.457855e+03
  4.404370e+01    6.536497e+03
  4.406659e+01    6.642807e+03
  4.408947e+01    6.814836e+03
  4.411236e+01    7.105633e+03
  4.413524e+01    7.581988e+03
  4.415813e+01    8.428837e+03
  4.418102e+01    1.002490e+04
  4.420390e+01    1.284199e+04
  4.422679e+01    1.713321e+04
  4.424967e+01    2.205378e+04
  4.427256e+01    2.541441e+04
  4.429544e+01    2.561645e+04
  4.431833e+01    2.288381e+04
  4.434121e+01    1.844159e+04
  4.436410e+01    1.396183e+04
  4.438698e+01    1.069255e+04
  4.440987e+01    8.776170e+03
  4.443275e+01    7.740288e+03
  4.445564e+01    7.160474e+03
  4.447853e+01    6.831138e+03
  4.450141e+01    6.623615e+03
  4.452430e+01    6.474982e+03
  4.454718e+01    6.361653e+03
  4.457007e+01    6.280091e+03
  4.459295e+01    6.237697e+03
  4.461584e+01    6.195961e+03
  4.463872e+01    6.155787e+03
  4.466161e+01    6.110511e+03
  4.468449e+01    6.088312e+03
  4.470738e+01    6.069051e+03
  4.473026e+01    6.051383e+03
  4.475315e+01    6.040542e+03
  4.477603e+01    6.023138e+03
  4.479892e+01    6.013482e+03
  4.482181e+01    6.004088e+03
  4.484469e+01    5.998049e+03
  4.486758e+01    5.993557e+03
  4.489046e+01    5.978892e+03
  4.491335e+01    5.972274e+03
  4.493623e+01    5.987155e+03
  4.495912e+01    5.994261e+03
  4.498200e+01    5.994285e+03
  4.500489e+01    6.000035e+03
  4.502777e+01    6.008227e+03
  4.505066e+01    6.012143e+03
  4.507354e+01    6.030450e+03
  4.509643e+01    6.055625e+03
  4.511932e+01    6.084568e+03
  4.514220e+01    6.145280e+03
  4.516509e+01    6.236199e+03
  4.518797e+01    6.399113e+03
  4.521086e+01    6.705810e+03
  4.523374e+01    7.243724e+03
  4.525663e+01    8.158368e+03
  4.527951e+01    9.447510e+03
  4.530240e+01    1.072717e+04
  4.532528e+01    1.137431e+04
  4.534817e+01    1.114657e+04
  4.537105e+01    1.020210e+04
  4.539394e+01    8.900682e+03
  4.541683e+01    7.729359e+03
  4.543971e+01    6.953186e+03
  4.546260e+01    6.513395e+03
  4.548548e+01    6.275898e+03
  4.550837e+01    6.133822e+03
  4.553125e+01    6.046427e+03
  4.555414e+01    5.998772e+03
  4.557702e+01    5.960703e+03
  4.559991e+01    5.928303e+03
  4.562279e+01    5.896304e+03
  4.564568e+01    5.885320e+03
  4.566856e+01    5.871822e+03
  4.569145e+01    5.871849e+03
  4.571433e+01    5.858195e+03
  4.573722e+01    5.841124e+03
  4.576011e+01    5.827020e+03
  4.578299e+01    5.823103e+03
  4.580588e+01    5.811245e+03
  4.582876e+01    5.799601e+03
  4.585165e+01    5.795680e+03
  4.587453e+01    5.792459e+03
  4.589742e+01    5.790813e+03
  4.592030e+01    5.785851e+03
  4.594319e+01    5.785027e+03
  4.596607e+01    5.784214e+03
  4.598896e+01    5.779344e+03
  4.601184e+01    5.769657e+03
  4.603473e+01    5.764644e+03
  4.605762e+01    5.773666e+03
  4.608050e+01    5.767303e+03
  4.610339e+01    5.758562e+03
  4.612627e+01    5.778475e+03
  4.614916e+01    5.786932e+03
  4.617204e+01    5.807313e+03
  4.619493e+01    5.838237e+03
  4.621781e+01    5.902589e+03
  4.624070e+01    6.004951e+03
  4.626358e+01    6.210829e+03
  4.628647e+01    6.519473e+03
  4.630935e+01    6.945548e+03
  4.633224e+01    7.344951e+03
  4.635513e+01    7.486561e+03
  4.637801e+01    7.347970e+03
  4.640090e+01    7.022758e+03
  4.642378e+01    6.604481e+03
  4.644667e+01    6.264111e+03
  4.646955e+01    6.037779e+03
  4.649244e+01    5.934730e+03
  4.651532e+01    5.872151e+03
  4.653821e+01    5.841234e+03
  4.656109e+01    5.815021e+03
  4.658398e+01    5.794425e+03
  4.660686e+01    5.781146e+03
  4.662975e+01    5.770617e+03
  4.665263e+01    5.771363e+03
  4.667552e+01    5.773748e+03
  4.669841e+01    5.774095e+03
  4.672129e+01    5.772100e+03
  4.674418e+01    5.771892e+03
  4.676706e+01    5.766949e+03
  4.678995e+01    5.794532e+03
  4.681283e+01    5.804810e+03
  4.683572e+01    5.803619e+03
  4.685860e+01    5.800272e+03
  4.688149e+01    5.808512e+03
  4.690437e+01    5.808876e+03
  4.692726e+01    5.823115e+03
  4.695014e+01    5.827854e+03
  4.697303e+01    5.843723e+03
  4.699592e+01    5.860332e+03
  4.701880e+01    5.863585e+03
  4.704169e+01    5.888374e+03
  4.706457e+01    5.909330e+03
  4.708746e+01    5.916263e+03
  4.711034e+01    5.943176e+03
  4.713323e+01    5.967281e+03
  4.715611e+01    5.969181e+03
  4.717900e+01    5.996409e+03
  4.720188e+01    6.032895e+03
  4.722477e+01    6.097538e+03
  4.724765e+01    6.194771e+03
  4.727054e+01    6.327992e+03
  4.729343e+01    6.557392e+03
  4.731631e+01    6.850007e+03
  4.733920e+01    7.117765e+03
  4.736208e+01    7.243185e+03
  4.738497e+01    7.196231e+03
  4.740785e+01    7.018565e+03
  4.743074e+01    6.774054e+03
  4.745362e+01    6.554713e+03
  4.747651e+01    6.472627e+03
  4.749939e+01    6.460197e+03
  4.752228e+01    6.466694e+03
  4.754516e+01    6.496305e+03
  4.756805e+01    6.468955e+03
  4.759094e+01    6.552244e+03
  4.761382e+01    6.624018e+03
  4.763671e+01    6.642700e+03
  4.765959e+01    6.631803e+03
  4.768248e+01    6.641892e+03
  4.770536e+01    6.618702e+03
  4.772825e+01    6.519625e+03
  4.775113e+01    6.572792e+03
  4.777402e+01    6.434970e+03
  4.779690e+01    6.417006e+03
  4.781979e+01    6.195708e+03
  4.784267e+01    5.978177e+03
  4.786556e+01    5.138443e+03
  4.788844e+01    2.499589e+03