File: Output/ROCK_XRD/WAM39B_integrated/rampe1/wam39b_rampe_1_xrd_000017_integrated.dat
# == pyFAI calibration ==
# Distance Sample to Detector: 0.261615 m
# PONI: 2.023e-01, 2.348e-01 m
# Rotations: -0.026380 0.002005 0.000000 rad
#
# == Fit2d calibration ==
# Distance Sample-beamCenter: 261.707 mm
# Center: x=6119.331, y=5134.776 pix
# Tilt: 1.516 deg  TiltPlanRot: 4.347 deg
#
# Detector Rayonix SX165	 PixelSize= 3.950e-05, 3.950e-05 m
#    Detector has a mask: True
#    Detector has a dark current: False
#    detector has a flat field: False
#
# Wavelength: 1.12713e-10 m
# Mask applied: from detector
# Dark current applied: False
# Flat field applied: False
# Polarization factor: None
# Normalization factor: 1.0
# --> ROCK\\WAM39B_integrated\wam39b_rampe_1_xrd_000017_integrated.dat
#       2th_deg             I
  2.502596e+01    4.359155e+03
  2.504885e+01    1.145937e+04
  2.507173e+01    1.545536e+04
  2.509462e+01    1.642913e+04
  2.511750e+01    1.796383e+04
  2.514039e+01    1.862008e+04
  2.516327e+01    1.856663e+04
  2.518616e+01    1.841724e+04
  2.520905e+01    1.829797e+04
  2.523193e+01    1.809665e+04
  2.525482e+01    1.818047e+04
  2.527770e+01    1.854426e+04
  2.530059e+01    1.850292e+04
  2.532347e+01    1.835843e+04
  2.534636e+01    1.825086e+04
  2.536924e+01    1.823908e+04
  2.539213e+01    1.830621e+04
  2.541501e+01    1.839567e+04
  2.543790e+01    1.852529e+04
  2.546078e+01    1.871384e+04
  2.548367e+01    1.886125e+04
  2.550656e+01    1.890382e+04
  2.552944e+01    1.902015e+04
  2.555233e+01    1.947132e+04
  2.557521e+01    1.980149e+04
  2.559810e+01    1.994707e+04
  2.562098e+01    2.012539e+04
  2.564387e+01    2.030789e+04
  2.566675e+01    2.046229e+04
  2.568964e+01    2.050895e+04
  2.571252e+01    2.054367e+04
  2.573541e+01    2.057476e+04
  2.575829e+01    2.046714e+04
  2.578118e+01    2.022688e+04
  2.580407e+01    1.999883e+04
  2.582695e+01    1.977164e+04
  2.584984e+01    1.954234e+04
  2.587272e+01    1.934511e+04
  2.589561e+01    1.926310e+04
  2.591849e+01    1.916073e+04
  2.594138e+01    1.912919e+04
  2.596426e+01    1.918849e+04
  2.598715e+01    1.919823e+04
  2.601003e+01    1.933648e+04
  2.603292e+01    1.945500e+04
  2.605580e+01    1.958830e+04
  2.607869e+01    1.978429e+04
  2.610157e+01    1.998952e+04
  2.612446e+01    2.023212e+04
  2.614735e+01    2.051459e+04
  2.617023e+01    2.083352e+04
  2.619312e+01    2.125898e+04
  2.621600e+01    2.183413e+04
  2.623889e+01    2.251919e+04
  2.626177e+01    2.354569e+04
  2.628466e+01    2.496581e+04
  2.630754e+01    2.680698e+04
  2.633043e+01    2.882851e+04
  2.635331e+01    3.048347e+04
  2.637620e+01    3.113695e+04
  2.639908e+01    3.041437e+04
  2.642197e+01    2.864823e+04
  2.644486e+01    2.658670e+04
  2.646774e+01    2.487957e+04
  2.649063e+01    2.354507e+04
  2.651351e+01    2.271796e+04
  2.653640e+01    2.217176e+04
  2.655928e+01    2.182775e+04
  2.658217e+01    2.159684e+04
  2.660505e+01    2.143012e+04
  2.662794e+01    2.130586e+04
  2.665082e+01    2.114983e+04
  2.667371e+01    2.099452e+04
  2.669659e+01    2.081164e+04
  2.671948e+01    2.060207e+04
  2.674237e+01    2.038245e+04
  2.676525e+01    2.012094e+04
  2.678814e+01    1.981543e+04
  2.681102e+01    1.951664e+04
  2.683391e+01    1.919823e+04
  2.685679e+01    1.888617e+04
  2.687968e+01    1.859117e+04
  2.690256e+01    1.825265e+04
  2.692545e+01    1.796622e+04
  2.694833e+01    1.767738e+04
  2.697122e+01    1.740952e+04
  2.699410e+01    1.717280e+04
  2.701699e+01    1.698880e+04
  2.703988e+01    1.676346e+04
  2.706276e+01    1.657285e+04
  2.708565e+01    1.643179e+04
  2.710853e+01    1.628563e+04
  2.713142e+01    1.615823e+04
  2.715430e+01    1.604503e+04
  2.717719e+01    1.593324e+04
  2.720007e+01    1.580320e+04
  2.722296e+01    1.569688e+04
  2.724584e+01    1.559728e+04
  2.726873e+01    1.554923e+04
  2.729161e+01    1.547747e+04
  2.731450e+01    1.541652e+04
  2.733738e+01    1.534250e+04
  2.736027e+01    1.527894e+04
  2.738316e+01    1.523536e+04
  2.740604e+01    1.518831e+04
  2.742893e+01    1.516299e+04
  2.745181e+01    1.516244e+04
  2.747470e+01    1.514123e+04
  2.749758e+01    1.512608e+04
  2.752047e+01    1.510999e+04
  2.754335e+01    1.511509e+04
  2.756624e+01    1.514020e+04
  2.758912e+01    1.516735e+04
  2.761201e+01    1.519608e+04
  2.763489e+01    1.523908e+04
  2.765778e+01    1.530718e+04
  2.768067e+01    1.538877e+04
  2.770355e+01    1.550393e+04
  2.772644e+01    1.561047e+04
  2.774932e+01    1.574872e+04
  2.777221e+01    1.594532e+04
  2.779509e+01    1.617616e+04
  2.781798e+01    1.646243e+04
  2.784086e+01    1.678323e+04
  2.786375e+01    1.717356e+04
  2.788663e+01    1.762627e+04
  2.790952e+01    1.820066e+04
  2.793240e+01    1.894347e+04
  2.795529e+01    1.979000e+04
  2.797818e+01    2.054360e+04
  2.800106e+01    2.089495e+04
  2.802395e+01    2.061668e+04
  2.804683e+01    1.973747e+04
  2.806972e+01    1.852933e+04
  2.809260e+01    1.735712e+04
  2.811549e+01    1.640852e+04
  2.813837e+01    1.570477e+04
  2.816126e+01    1.517676e+04
  2.818414e+01    1.478415e+04
  2.820703e+01    1.448543e+04
  2.822991e+01    1.422613e+04
  2.825280e+01    1.401093e+04
  2.827568e+01    1.384200e+04
  2.829857e+01    1.369116e+04
  2.832146e+01    1.356327e+04
  2.834434e+01    1.344476e+04
  2.836723e+01    1.334501e+04
  2.839011e+01    1.325258e+04
  2.841300e+01    1.314689e+04
  2.843588e+01    1.306691e+04
  2.845877e+01    1.299290e+04
  2.848165e+01    1.291918e+04
  2.850454e+01    1.285803e+04
  2.852742e+01    1.280195e+04
  2.855031e+01    1.275101e+04
  2.857319e+01    1.268642e+04
  2.859608e+01    1.263492e+04
  2.861897e+01    1.259060e+04
  2.864185e+01    1.253395e+04
  2.866474e+01    1.247995e+04
  2.868762e+01    1.240829e+04
  2.871051e+01    1.235765e+04
  2.873339e+01    1.232133e+04
  2.875628e+01    1.226454e+04
  2.877916e+01    1.221588e+04
  2.880205e+01    1.216548e+04
  2.882493e+01    1.212051e+04
  2.884782e+01    1.208276e+04
  2.887070e+01    1.204269e+04
  2.889359e+01    1.199520e+04
  2.891648e+01    1.195116e+04
  2.893936e+01    1.190191e+04
  2.896225e+01    1.185845e+04
  2.898513e+01    1.181468e+04
  2.900802e+01    1.177197e+04
  2.903090e+01    1.172804e+04
  2.905379e+01    1.168401e+04
  2.907667e+01    1.165046e+04
  2.909956e+01    1.160507e+04
  2.912244e+01    1.155925e+04
  2.914533e+01    1.152207e+04
  2.916821e+01    1.149566e+04
  2.919110e+01    1.146950e+04
  2.921398e+01    1.143542e+04
  2.923687e+01    1.141029e+04
  2.925976e+01    1.138659e+04
  2.928264e+01    1.136195e+04
  2.930553e+01    1.134725e+04
  2.932841e+01    1.132509e+04
  2.935130e+01    1.130690e+04
  2.937418e+01    1.130463e+04
  2.939707e+01    1.133894e+04
  2.941995e+01    1.138556e+04
  2.944284e+01    1.148783e+04
  2.946572e+01    1.168570e+04
  2.948861e+01    1.195019e+04
  2.951149e+01    1.227970e+04
  2.953438e+01    1.259416e+04
  2.955727e+01    1.272917e+04
  2.958015e+01    1.261712e+04
  2.960304e+01    1.231393e+04
  2.962592e+01    1.191798e+04
  2.964881e+01    1.154452e+04
  2.967169e+01    1.127429e+04
  2.969458e+01    1.109608e+04
  2.971746e+01    1.096803e+04
  2.974035e+01    1.088063e+04
  2.976323e+01    1.082122e+04
  2.978612e+01    1.078991e+04
  2.980900e+01    1.075931e+04
  2.983189e+01    1.073288e+04
  2.985478e+01    1.070772e+04
  2.987766e+01    1.067590e+04
  2.990055e+01    1.066423e+04
  2.992343e+01    1.066163e+04
  2.994632e+01    1.064815e+04
  2.996920e+01    1.064435e+04
  2.999209e+01    1.065400e+04
  3.001497e+01    1.066723e+04
  3.003786e+01    1.066858e+04
  3.006074e+01    1.067565e+04
  3.008363e+01    1.069262e+04
  3.010651e+01    1.071640e+04
  3.012940e+01    1.074027e+04
  3.015228e+01    1.073854e+04
  3.017517e+01    1.075139e+04
  3.019806e+01    1.078884e+04
  3.022094e+01    1.080753e+04
  3.024383e+01    1.082877e+04
  3.026671e+01    1.087100e+04
  3.028960e+01    1.091883e+04
  3.031248e+01    1.097823e+04
  3.033537e+01    1.105220e+04
  3.035825e+01    1.112559e+04
  3.038114e+01    1.118929e+04
  3.040402e+01    1.127599e+04
  3.042691e+01    1.137371e+04
  3.044979e+01    1.147996e+04
  3.047268e+01    1.159656e+04
  3.049557e+01    1.173066e+04
  3.051845e+01    1.187463e+04
  3.054134e+01    1.202660e+04
  3.056422e+01    1.221788e+04
  3.058711e+01    1.243146e+04
  3.060999e+01    1.265556e+04
  3.063288e+01    1.289806e+04
  3.065576e+01    1.315726e+04
  3.067865e+01    1.344349e+04
  3.070153e+01    1.376472e+04
  3.072442e+01    1.409060e+04
  3.074730e+01    1.442862e+04
  3.077019e+01    1.476936e+04
  3.079308e+01    1.514005e+04
  3.081596e+01    1.551675e+04
  3.083885e+01    1.593642e+04
  3.086173e+01    1.643176e+04
  3.088462e+01    1.709982e+04
  3.090750e+01    1.805861e+04
  3.093039e+01    1.952517e+04
  3.095327e+01    2.173590e+04
  3.097616e+01    2.476487e+04
  3.099904e+01    2.813367e+04
  3.102193e+01    3.069795e+04
  3.104481e+01    3.125538e+04
  3.106770e+01    2.942416e+04
  3.109059e+01    2.588105e+04
  3.111347e+01    2.200845e+04
  3.113636e+01    1.880336e+04
  3.115924e+01    1.651861e+04
  3.118213e+01    1.499509e+04
  3.120501e+01    1.396873e+04
  3.122790e+01    1.323690e+04
  3.125078e+01    1.269457e+04
  3.127367e+01    1.228046e+04
  3.129655e+01    1.195673e+04
  3.131944e+01    1.168705e+04
  3.134232e+01    1.145232e+04
  3.136521e+01    1.125952e+04
  3.138809e+01    1.109134e+04
  3.141098e+01    1.094758e+04
  3.143387e+01    1.082381e+04
  3.145675e+01    1.070853e+04
  3.147964e+01    1.060767e+04
  3.150252e+01    1.050887e+04
  3.152541e+01    1.042559e+04
  3.154829e+01    1.034575e+04
  3.157118e+01    1.027002e+04
  3.159406e+01    1.020485e+04
  3.161695e+01    1.014774e+04
  3.163983e+01    1.008949e+04
  3.166272e+01    1.004318e+04
  3.168560e+01    9.994416e+03
  3.170849e+01    9.957985e+03
  3.173138e+01    9.922806e+03
  3.175426e+01    9.877675e+03
  3.177715e+01    9.838668e+03
  3.180003e+01    9.805538e+03
  3.182292e+01    9.765374e+03
  3.184580e+01    9.728982e+03
  3.186869e+01    9.698660e+03
  3.189157e+01    9.669486e+03
  3.191446e+01    9.638733e+03
  3.193734e+01    9.608104e+03
  3.196023e+01    9.575693e+03
  3.198311e+01    9.546758e+03
  3.200600e+01    9.522958e+03
  3.202889e+01    9.499509e+03
  3.205177e+01    9.477996e+03
  3.207466e+01    9.456509e+03
  3.209754e+01    9.428787e+03
  3.212043e+01    9.399086e+03
  3.214331e+01    9.378337e+03
  3.216620e+01    9.364144e+03
  3.218908e+01    9.340979e+03
  3.221197e+01    9.316398e+03
  3.223485e+01    9.302677e+03
  3.225774e+01    9.303367e+03
  3.228062e+01    9.312043e+03
  3.230351e+01    9.334312e+03
  3.232639e+01    9.386959e+03
  3.234928e+01    9.497538e+03
  3.237217e+01    9.695171e+03
  3.239505e+01    9.963999e+03
  3.241794e+01    1.027369e+04
  3.244082e+01    1.050646e+04
  3.246371e+01    1.055397e+04
  3.248659e+01    1.038185e+04
  3.250948e+01    1.005184e+04
  3.253236e+01    9.693896e+03
  3.255525e+01    9.402051e+03
  3.257813e+01    9.197873e+03
  3.260102e+01    9.066491e+03
  3.262390e+01    8.976063e+03
  3.264679e+01    8.906445e+03
  3.266968e+01    8.859033e+03
  3.269256e+01    8.821386e+03
  3.271545e+01    8.796070e+03
  3.273833e+01    8.768704e+03
  3.276122e+01    8.744605e+03
  3.278410e+01    8.718691e+03
  3.280699e+01    8.693426e+03
  3.282987e+01    8.678174e+03
  3.285276e+01    8.666092e+03
  3.287564e+01    8.649782e+03
  3.289853e+01    8.634273e+03
  3.292141e+01    8.609170e+03
  3.294430e+01    8.592015e+03
  3.296719e+01    8.578796e+03
  3.299007e+01    8.564681e+03
  3.301296e+01    8.554961e+03
  3.303584e+01    8.547587e+03
  3.305873e+01    8.540237e+03
  3.308161e+01    8.530915e+03
  3.310450e+01    8.517310e+03
  3.312738e+01    8.505261e+03
  3.315027e+01    8.502070e+03
  3.317315e+01    8.499034e+03
  3.319604e+01    8.494316e+03
  3.321892e+01    8.495815e+03
  3.324181e+01    8.498041e+03
  3.326469e+01    8.496057e+03
  3.328758e+01    8.504688e+03
  3.331047e+01    8.513918e+03
  3.333335e+01    8.500904e+03
  3.335624e+01    8.490688e+03
  3.337912e+01    8.490488e+03
  3.340201e+01    8.493948e+03
  3.342489e+01    8.506532e+03
  3.344778e+01    8.509091e+03
  3.347066e+01    8.527268e+03
  3.349355e+01    8.553613e+03
  3.351643e+01    8.584071e+03
  3.353932e+01    8.628236e+03
  3.356220e+01    8.690128e+03
  3.358509e+01    8.778596e+03
  3.360798e+01    8.910882e+03
  3.363086e+01    9.106803e+03
  3.365375e+01    9.413787e+03
  3.367663e+01    9.896639e+03
  3.369952e+01    1.069833e+04
  3.372240e+01    1.201156e+04
  3.374529e+01    1.398400e+04
  3.376817e+01    1.653390e+04
  3.379106e+01    1.906120e+04
  3.381394e+01    2.060361e+04
  3.383683e+01    2.043529e+04
  3.385971e+01    1.864929e+04
  3.388260e+01    1.602800e+04
  3.390549e+01    1.353023e+04
  3.392837e+01    1.166956e+04
  3.395126e+01    1.045205e+04
  3.397414e+01    9.723311e+03
  3.399703e+01    9.278875e+03
  3.401991e+01    9.003560e+03
  3.404280e+01    8.813261e+03
  3.406568e+01    8.678008e+03
  3.408857e+01    8.597153e+03
  3.411145e+01    8.540688e+03
  3.413434e+01    8.487771e+03
  3.415722e+01    8.450445e+03
  3.418011e+01    8.418209e+03
  3.420300e+01    8.388840e+03
  3.422588e+01    8.362021e+03
  3.424877e+01    8.341051e+03
  3.427165e+01    8.318255e+03
  3.429454e+01    8.287826e+03
  3.431742e+01    8.263010e+03
  3.434031e+01    8.240432e+03
  3.436319e+01    8.214847e+03
  3.438608e+01    8.182415e+03
  3.440896e+01    8.159073e+03
  3.443185e+01    8.130883e+03
  3.445473e+01    8.099727e+03
  3.447762e+01    8.066212e+03
  3.450050e+01    8.046510e+03
  3.452339e+01    8.029767e+03
  3.454628e+01    8.011941e+03
  3.456916e+01    7.995512e+03
  3.459205e+01    7.980695e+03
  3.461493e+01    7.968242e+03
  3.463782e+01    7.958946e+03
  3.466070e+01    7.947169e+03
  3.468359e+01    7.941823e+03
  3.470647e+01    7.940640e+03
  3.472936e+01    7.938141e+03
  3.475224e+01    7.946136e+03
  3.477513e+01    7.950810e+03
  3.479801e+01    7.955146e+03
  3.482090e+01    7.977662e+03
  3.484379e+01    7.993957e+03
  3.486667e+01    8.009534e+03
  3.488956e+01    8.036620e+03
  3.491244e+01    8.066531e+03
  3.493533e+01    8.101945e+03
  3.495821e+01    8.132880e+03
  3.498110e+01    8.167446e+03
  3.500398e+01    8.196426e+03
  3.502687e+01    8.213109e+03
  3.504975e+01    8.223738e+03
  3.507264e+01    8.214334e+03
  3.509552e+01    8.178781e+03
  3.511841e+01    8.139570e+03
  3.514130e+01    8.088421e+03
  3.516418e+01    8.043156e+03
  3.518707e+01    7.981042e+03
  3.520995e+01    7.927848e+03
  3.523284e+01    7.883554e+03
  3.525572e+01    7.837438e+03
  3.527861e+01    7.793700e+03
  3.530149e+01    7.761621e+03
  3.532438e+01    7.723301e+03
  3.534726e+01    7.689097e+03
  3.537015e+01    7.658668e+03
  3.539303e+01    7.629519e+03
  3.541592e+01    7.609441e+03
  3.543880e+01    7.586271e+03
  3.546169e+01    7.563657e+03
  3.548458e+01    7.546063e+03
  3.550746e+01    7.527914e+03
  3.553035e+01    7.517522e+03
  3.555323e+01    7.498943e+03
  3.557612e+01    7.480187e+03
  3.559900e+01    7.464381e+03
  3.562189e+01    7.456984e+03
  3.564477e+01    7.449759e+03
  3.566766e+01    7.440622e+03
  3.569054e+01    7.432265e+03
  3.571343e+01    7.422645e+03
  3.573631e+01    7.413665e+03
  3.575920e+01    7.407361e+03
  3.578209e+01    7.407470e+03
  3.580497e+01    7.402249e+03
  3.582786e+01    7.398864e+03
  3.585074e+01    7.398515e+03
  3.587363e+01    7.397561e+03
  3.589651e+01    7.399917e+03
  3.591940e+01    7.403051e+03
  3.594228e+01    7.399538e+03
  3.596517e+01    7.408390e+03
  3.598805e+01    7.417889e+03
  3.601094e+01    7.424525e+03
  3.603382e+01    7.434733e+03
  3.605671e+01    7.441869e+03
  3.607960e+01    7.456896e+03
  3.610248e+01    7.469682e+03
  3.612537e+01    7.487545e+03
  3.614825e+01    7.522389e+03
  3.617114e+01    7.564545e+03
  3.619402e+01    7.614865e+03
  3.621691e+01    7.692892e+03
  3.623979e+01    7.802879e+03
  3.626268e+01    7.982725e+03
  3.628556e+01    8.268249e+03
  3.630845e+01    8.739740e+03
  3.633133e+01    9.470578e+03
  3.635422e+01    1.045969e+04
  3.637710e+01    1.149578e+04
  3.639999e+01    1.219569e+04
  3.642288e+01    1.227168e+04
  3.644576e+01    1.168121e+04
  3.646865e+01    1.069497e+04
  3.649153e+01    9.692094e+03
  3.651442e+01    8.908206e+03
  3.653730e+01    8.421329e+03
  3.656019e+01    8.287054e+03
  3.658307e+01    8.142897e+03
  3.660596e+01    7.824495e+03
  3.662884e+01    7.710451e+03
  3.665173e+01    7.662220e+03
  3.667461e+01    7.635501e+03
  3.669750e+01    7.617859e+03
  3.672039e+01    7.601852e+03
  3.674327e+01    7.592716e+03
  3.676616e+01    7.582944e+03
  3.678904e+01    7.581632e+03
  3.681193e+01    7.584459e+03
  3.683481e+01    7.590240e+03
  3.685770e+01    7.584469e+03
  3.688058e+01    7.593140e+03
  3.690347e+01    7.604456e+03
  3.692635e+01    7.616665e+03
  3.694924e+01    7.636115e+03
  3.697212e+01    7.657624e+03
  3.699501e+01    7.675430e+03
  3.701790e+01    7.692987e+03
  3.704078e+01    7.717130e+03
  3.706367e+01    7.750599e+03
  3.708655e+01    7.787086e+03
  3.710944e+01    7.832999e+03
  3.713232e+01    7.882043e+03
  3.715521e+01    7.943417e+03
  3.717809e+01    8.008576e+03
  3.720098e+01    8.069472e+03
  3.722386e+01    8.144400e+03
  3.724675e+01    8.224615e+03
  3.726963e+01    8.324824e+03
  3.729252e+01    8.450693e+03
  3.731541e+01    8.593817e+03
  3.733829e+01    8.785455e+03
  3.736118e+01    9.035813e+03
  3.738406e+01    9.352089e+03
  3.740695e+01    9.773884e+03
  3.742983e+01    1.036121e+04
  3.745272e+01    1.121210e+04
  3.747560e+01    1.250554e+04
  3.749849e+01    1.456662e+04
  3.752137e+01    1.797361e+04
  3.754426e+01    2.358277e+04
  3.756714e+01    3.232866e+04
  3.759003e+01    4.422097e+04
  3.761291e+01    5.673292e+04
  3.763580e+01    6.533422e+04
  3.765869e+01    6.636655e+04
  3.768157e+01    5.942840e+04
  3.770446e+01    4.743054e+04
  3.772734e+01    3.503134e+04
  3.775023e+01    2.541332e+04
  3.777311e+01    1.910674e+04
  3.779600e+01    1.529508e+04
  3.781888e+01    1.298326e+04
  3.784177e+01    1.155352e+04
  3.786465e+01    1.061356e+04
  3.788754e+01    9.969271e+03
  3.791042e+01    9.504630e+03
  3.793331e+01    9.164488e+03
  3.795620e+01    8.905108e+03
  3.797908e+01    8.687437e+03
  3.800197e+01    8.521195e+03
  3.802485e+01    8.390377e+03
  3.804774e+01    8.279807e+03
  3.807062e+01    8.200688e+03
  3.809351e+01    8.126805e+03
  3.811639e+01    8.066449e+03
  3.813928e+01    8.013367e+03
  3.816216e+01    7.967064e+03
  3.818505e+01    7.938931e+03
  3.820793e+01    7.910835e+03
  3.823082e+01    7.879110e+03
  3.825371e+01    7.860956e+03
  3.827659e+01    7.852953e+03
  3.829948e+01    7.840327e+03
  3.832236e+01    7.819444e+03
  3.834525e+01    7.795585e+03
  3.836813e+01    7.777455e+03
  3.839102e+01    7.764566e+03
  3.841390e+01    7.754649e+03
  3.843679e+01    7.738318e+03
  3.845967e+01    7.724811e+03
  3.848256e+01    7.713913e+03
  3.850544e+01    7.707129e+03
  3.852833e+01    7.698744e+03
  3.855121e+01    7.692656e+03
  3.857410e+01    7.692700e+03
  3.859699e+01    7.695875e+03
  3.861987e+01    7.699111e+03
  3.864276e+01    7.717571e+03
  3.866564e+01    7.747900e+03
  3.868853e+01    7.799629e+03
  3.871141e+01    7.891727e+03
  3.873430e+01    8.052886e+03
  3.875718e+01    8.319771e+03
  3.878007e+01    8.719628e+03
  3.880295e+01    9.195521e+03
  3.882584e+01    9.627723e+03
  3.884872e+01    9.821113e+03
  3.887161e+01    9.705368e+03
  3.889450e+01    9.317145e+03
  3.891738e+01    8.818529e+03
  3.894027e+01    8.388963e+03
  3.896315e+01    8.072904e+03
  3.898604e+01    7.870041e+03
  3.900892e+01    7.749293e+03
  3.903181e+01    7.674859e+03
  3.905469e+01    7.629927e+03
  3.907758e+01    7.592542e+03
  3.910046e+01    7.567567e+03
  3.912335e+01    7.548014e+03
  3.914623e+01    7.536992e+03
  3.916912e+01    7.532311e+03
  3.919201e+01    7.533204e+03
  3.921489e+01    7.517420e+03
  3.923778e+01    7.509987e+03
  3.926066e+01    7.505502e+03
  3.928355e+01    7.499481e+03
  3.930643e+01    7.496037e+03
  3.932932e+01    7.483752e+03
  3.935220e+01    7.477026e+03
  3.937509e+01    7.479947e+03
  3.939797e+01    7.473231e+03
  3.942086e+01    7.472157e+03
  3.944374e+01    7.460459e+03
  3.946663e+01    7.457918e+03
  3.948951e+01    7.460725e+03
  3.951240e+01    7.454305e+03
  3.953529e+01    7.447513e+03
  3.955817e+01    7.446207e+03
  3.958106e+01    7.442776e+03
  3.960394e+01    7.437771e+03
  3.962683e+01    7.425080e+03
  3.964971e+01    7.416462e+03
  3.967260e+01    7.420243e+03
  3.969548e+01    7.419221e+03
  3.971837e+01    7.417255e+03
  3.974125e+01    7.407369e+03
  3.976414e+01    7.397392e+03
  3.978702e+01    7.405861e+03
  3.980991e+01    7.410706e+03
  3.983280e+01    7.411511e+03
  3.985568e+01    7.425357e+03
  3.987857e+01    7.458955e+03
  3.990145e+01    7.517876e+03
  3.992434e+01    7.570853e+03
  3.994722e+01    7.670105e+03
  3.997011e+01    7.800069e+03
  3.999299e+01    7.912638e+03
  4.001588e+01    7.980918e+03
  4.003876e+01    7.964053e+03
  4.006165e+01    7.897585e+03
  4.008453e+01    7.795733e+03
  4.010742e+01    7.689654e+03
  4.013031e+01    7.614608e+03
  4.015319e+01    7.582754e+03
  4.017608e+01    7.579028e+03
  4.019896e+01    7.585713e+03
  4.022185e+01    7.603088e+03
  4.024473e+01    7.633378e+03
  4.026762e+01    7.658854e+03
  4.029050e+01    7.682421e+03
  4.031339e+01    7.704001e+03
  4.033627e+01    7.729658e+03
  4.035916e+01    7.742671e+03
  4.038204e+01    7.748162e+03
  4.040493e+01    7.746779e+03
  4.042782e+01    7.736471e+03
  4.045070e+01    7.721087e+03
  4.047359e+01    7.694720e+03
  4.049647e+01    7.659377e+03
  4.051936e+01    7.626515e+03
  4.054224e+01    7.590530e+03
  4.056513e+01    7.547998e+03
  4.058801e+01    7.508946e+03
  4.061090e+01    7.478830e+03
  4.063378e+01    7.463638e+03
  4.065667e+01    7.442769e+03
  4.067955e+01    7.414311e+03
  4.070244e+01    7.396376e+03
  4.072532e+01    7.381642e+03
  4.074821e+01    7.371728e+03
  4.077110e+01    7.366422e+03
  4.079398e+01    7.368566e+03
  4.081687e+01    7.370949e+03
  4.083975e+01    7.385907e+03
  4.086264e+01    7.401202e+03
  4.088552e+01    7.420724e+03
  4.090841e+01    7.453472e+03
  4.093129e+01    7.507122e+03
  4.095418e+01    7.584121e+03
  4.097706e+01    7.691725e+03
  4.099995e+01    7.865754e+03
  4.102283e+01    8.141185e+03
  4.104572e+01    8.602623e+03
  4.106861e+01    9.344207e+03
  4.109149e+01    1.044479e+04
  4.111438e+01    1.182368e+04
  4.113726e+01    1.305181e+04
  4.116015e+01    1.363601e+04
  4.118303e+01    1.336693e+04
  4.120592e+01    1.236352e+04
  4.122880e+01    1.103846e+04
  4.125169e+01    9.832472e+03
  4.127457e+01    8.976146e+03
  4.129746e+01    8.453008e+03
  4.132034e+01    8.138950e+03
  4.134323e+01    7.949365e+03
  4.136612e+01    7.833466e+03
  4.138900e+01    7.755608e+03
  4.141189e+01    7.698346e+03
  4.143477e+01    7.643938e+03
  4.145766e+01    7.595933e+03
  4.148054e+01    7.554836e+03
  4.150343e+01    7.516688e+03
  4.152631e+01    7.487187e+03
  4.154920e+01    7.470490e+03
  4.157208e+01    7.447896e+03
  4.159497e+01    7.431689e+03
  4.161785e+01    7.423976e+03
  4.164074e+01    7.409484e+03
  4.166362e+01    7.395458e+03
  4.168651e+01    7.396510e+03
  4.170940e+01    7.388917e+03
  4.173228e+01    7.372858e+03
  4.175517e+01    7.370610e+03
  4.177805e+01    7.370968e+03
  4.180094e+01    7.364518e+03
  4.182382e+01    7.365371e+03
  4.184671e+01    7.365992e+03
  4.186959e+01    7.365639e+03
  4.189248e+01    7.373861e+03
  4.191536e+01    7.381996e+03
  4.193825e+01    7.382930e+03
  4.196113e+01    7.388260e+03
  4.198402e+01    7.395475e+03
  4.200691e+01    7.406790e+03
  4.202979e+01    7.417238e+03
  4.205268e+01    7.425408e+03
  4.207556e+01    7.436350e+03
  4.209845e+01    7.462474e+03
  4.212133e+01    7.503709e+03
  4.214422e+01    7.564448e+03
  4.216710e+01    7.672513e+03
  4.218999e+01    7.848427e+03
  4.221287e+01    8.094727e+03
  4.223576e+01    8.384088e+03
  4.225864e+01    8.602693e+03
  4.228153e+01    8.665462e+03
  4.230442e+01    8.553764e+03
  4.232730e+01    8.297352e+03
  4.235019e+01    7.992058e+03
  4.237307e+01    7.727297e+03
  4.239596e+01    7.540280e+03
  4.241884e+01    7.419452e+03
  4.244173e+01    7.340967e+03
  4.246461e+01    7.284521e+03
  4.248750e+01    7.239004e+03
  4.251038e+01    7.210453e+03
  4.253327e+01    7.187134e+03
  4.255615e+01    7.163143e+03
  4.257904e+01    7.149547e+03
  4.260192e+01    7.139346e+03
  4.262481e+01    7.127144e+03
  4.264770e+01    7.111476e+03
  4.267058e+01    7.104175e+03
  4.269347e+01    7.098646e+03
  4.271635e+01    7.094601e+03
  4.273924e+01    7.085521e+03
  4.276212e+01    7.084635e+03
  4.278501e+01    7.075000e+03
  4.280789e+01    7.076843e+03
  4.283078e+01    7.068524e+03
  4.285366e+01    7.069893e+03
  4.287655e+01    7.070340e+03
  4.289943e+01    7.071596e+03
  4.292232e+01    7.071358e+03
  4.294521e+01    7.084958e+03
  4.296809e+01    7.096291e+03
  4.299098e+01    7.104896e+03
  4.301386e+01    7.116732e+03
  4.303675e+01    7.128264e+03
  4.305963e+01    7.142870e+03
  4.308252e+01    7.165070e+03
  4.310540e+01    7.214011e+03
  4.312829e+01    7.246083e+03
  4.315117e+01    7.310485e+03
  4.317406e+01    7.397353e+03
  4.319694e+01    7.526968e+03
  4.321983e+01    7.714003e+03
  4.324272e+01    8.028188e+03
  4.326560e+01    8.530853e+03
  4.328849e+01    9.314393e+03
  4.331137e+01    1.041731e+04
  4.333426e+01    1.157820e+04
  4.335714e+01    1.238656e+04
  4.338003e+01    1.251080e+04
  4.340291e+01    1.194645e+04
  4.342580e+01    1.093045e+04
  4.344868e+01    9.806767e+03
  4.347157e+01    8.927604e+03
  4.349445e+01    8.356707e+03
  4.351734e+01    8.031026e+03
  4.354022e+01    7.837031e+03
  4.356311e+01    7.751451e+03
  4.358600e+01    7.708305e+03
  4.360888e+01    7.688820e+03
  4.363177e+01    7.706392e+03
  4.365465e+01    7.740482e+03
  4.367754e+01    7.788344e+03
  4.370042e+01    7.851916e+03
  4.372331e+01    7.916323e+03
  4.374619e+01    7.985847e+03
  4.376908e+01    8.066887e+03
  4.379196e+01    8.129896e+03
  4.381485e+01    8.210379e+03
  4.383773e+01    8.269604e+03
  4.386062e+01    8.319298e+03
  4.388351e+01    8.384893e+03
  4.390639e+01    8.431690e+03
  4.392928e+01    8.481105e+03
  4.395216e+01    8.560416e+03
  4.397505e+01    8.639616e+03
  4.399793e+01    8.725090e+03
  4.402082e+01    8.831669e+03
  4.404370e+01    8.955549e+03
  4.406659e+01    9.059569e+03
  4.408947e+01    9.178579e+03
  4.411236e+01    9.319707e+03
  4.413524e+01    9.452917e+03
  4.415813e+01    9.606565e+03
  4.418102e+01    9.795682e+03
  4.420390e+01    1.002416e+04
  4.422679e+01    1.029262e+04
  4.424967e+01    1.066847e+04
  4.427256e+01    1.123101e+04
  4.429544e+01    1.209671e+04
  4.431833e+01    1.349139e+04
  4.434121e+01    1.577846e+04
  4.436410e+01    1.929838e+04
  4.438698e+01    2.390664e+04
  4.440987e+01    2.834521e+04
  4.443275e+01    3.084017e+04
  4.445564e+01    3.040800e+04
  4.447853e+01    2.730987e+04
  4.450141e+01    2.261154e+04
  4.452430e+01    1.798952e+04
  4.454718e+01    1.451328e+04
  4.457007e+01    1.225879e+04
  4.459295e+01    1.088555e+04
  4.461584e+01    1.001171e+04
  4.463872e+01    9.422086e+03
  4.466161e+01    9.013396e+03
  4.468449e+01    8.714453e+03
  4.470738e+01    8.489759e+03
  4.473026e+01    8.332680e+03
  4.475315e+01    8.205155e+03
  4.477603e+01    8.089453e+03
  4.479892e+01    7.988882e+03
  4.482181e+01    7.905262e+03
  4.484469e+01    7.829524e+03
  4.486758e+01    7.759347e+03
  4.489046e+01    7.698617e+03
  4.491335e+01    7.638820e+03
  4.493623e+01    7.607862e+03
  4.495912e+01    7.560788e+03
  4.498200e+01    7.527120e+03
  4.500489e+01    7.480758e+03
  4.502777e+01    7.445839e+03
  4.505066e+01    7.426316e+03
  4.507354e+01    7.407189e+03
  4.509643e+01    7.387766e+03
  4.511932e+01    7.374691e+03
  4.514220e+01    7.372623e+03
  4.516509e+01    7.358607e+03
  4.518797e+01    7.364809e+03
  4.521086e+01    7.382668e+03
  4.523374e+01    7.404614e+03
  4.525663e+01    7.445794e+03
  4.527951e+01    7.513377e+03
  4.530240e+01    7.623665e+03
  4.532528e+01    7.787889e+03
  4.534817e+01    8.063934e+03
  4.537105e+01    8.500884e+03
  4.539394e+01    9.199352e+03
  4.541683e+01    1.027288e+04
  4.543971e+01    1.162821e+04
  4.546260e+01    1.285037e+04
  4.548548e+01    1.346815e+04
  4.550837e+01    1.322836e+04
  4.553125e+01    1.227051e+04
  4.555414e+01    1.095126e+04
  4.557702e+01    9.704062e+03
  4.559991e+01    8.797485e+03
  4.562279e+01    8.217457e+03
  4.564568e+01    7.878152e+03
  4.566856e+01    7.652592e+03
  4.569145e+01    7.512152e+03
  4.571433e+01    7.422477e+03
  4.573722e+01    7.346403e+03
  4.576011e+01    7.296594e+03
  4.578299e+01    7.262064e+03
  4.580588e+01    7.241167e+03
  4.582876e+01    7.215604e+03
  4.585165e+01    7.203797e+03
  4.587453e+01    7.190110e+03
  4.589742e+01    7.166588e+03
  4.592030e+01    7.153361e+03
  4.594319e+01    7.160358e+03
  4.596607e+01    7.147066e+03
  4.598896e+01    7.129191e+03
  4.601184e+01    7.128440e+03
  4.603473e+01    7.116412e+03
  4.605762e+01    7.110234e+03
  4.608050e+01    7.086520e+03
  4.610339e+01    7.079536e+03
  4.612627e+01    7.087573e+03
  4.614916e+01    7.074415e+03
  4.617204e+01    7.064949e+03
  4.619493e+01    7.057063e+03
  4.621781e+01    7.054033e+03
  4.624070e+01    7.051697e+03
  4.626358e+01    7.058858e+03
  4.628647e+01    7.057561e+03
  4.630935e+01    7.061583e+03
  4.633224e+01    7.105394e+03
  4.635513e+01    7.149110e+03
  4.637801e+01    7.231059e+03
  4.640090e+01    7.368506e+03
  4.642378e+01    7.590615e+03
  4.644667e+01    7.934882e+03
  4.646955e+01    8.358865e+03
  4.649244e+01    8.751422e+03
  4.651532e+01    8.926840e+03
  4.653821e+01    8.850835e+03
  4.656109e+01    8.548230e+03
  4.658398e+01    8.143569e+03
  4.660686e+01    7.772922e+03
  4.662975e+01    7.512227e+03
  4.665263e+01    7.344408e+03
  4.667552e+01    7.248256e+03
  4.669841e+01    7.195846e+03
  4.672129e+01    7.167649e+03
  4.674418e+01    7.152744e+03
  4.676706e+01    7.147505e+03
  4.678995e+01    7.174205e+03
  4.681283e+01    7.182444e+03
  4.683572e+01    7.190283e+03
  4.685860e+01    7.186281e+03
  4.688149e+01    7.178533e+03
  4.690437e+01    7.167620e+03
  4.692726e+01    7.152406e+03
  4.695014e+01    7.121379e+03
  4.697303e+01    7.098693e+03
  4.699592e+01    7.084495e+03
  4.701880e+01    7.062486e+03
  4.704169e+01    7.057506e+03
  4.706457e+01    7.044504e+03
  4.708746e+01    7.028451e+03
  4.711034e+01    7.017222e+03
  4.713323e+01    7.013078e+03
  4.715611e+01    6.986282e+03
  4.717900e+01    6.983658e+03
  4.720188e+01    6.993880e+03
  4.722477e+01    6.998293e+03
  4.724765e+01    7.008190e+03
  4.727054e+01    7.017760e+03
  4.729343e+01    7.047751e+03
  4.731631e+01    7.077925e+03
  4.733920e+01    7.108044e+03
  4.736208e+01    7.155086e+03
  4.738497e+01    7.252949e+03
  4.740785e+01    7.394279e+03
  4.743074e+01    7.582670e+03
  4.745362e+01    7.832101e+03
  4.747651e+01    8.187965e+03
  4.749939e+01    8.526677e+03
  4.752228e+01    8.709282e+03
  4.754516e+01    8.715684e+03
  4.756805e+01    8.481227e+03
  4.759094e+01    8.336926e+03
  4.761382e+01    8.176837e+03
  4.763671e+01    8.012130e+03
  4.765959e+01    7.852857e+03
  4.768248e+01    7.797273e+03
  4.770536e+01    7.754170e+03
  4.772825e+01    7.631646e+03
  4.775113e+01    7.690145e+03
  4.777402e+01    7.550327e+03
  4.779690e+01    7.558479e+03
  4.781979e+01    7.312804e+03
  4.784267e+01    7.070190e+03
  4.786556e+01    6.097221e+03
  4.788844e+01    2.969630e+03