File: Output/ROCK_XRD/WAM39B_integrated/rampe1/wam39b_rampe_1_xrd_000020_integrated.dat
# == pyFAI calibration ==
# Distance Sample to Detector: 0.261615 m
# PONI: 2.023e-01, 2.348e-01 m
# Rotations: -0.026380 0.002005 0.000000 rad
#
# == Fit2d calibration ==
# Distance Sample-beamCenter: 261.707 mm
# Center: x=6119.331, y=5134.776 pix
# Tilt: 1.516 deg  TiltPlanRot: 4.347 deg
#
# Detector Rayonix SX165	 PixelSize= 3.950e-05, 3.950e-05 m
#    Detector has a mask: True
#    Detector has a dark current: False
#    detector has a flat field: False
#
# Wavelength: 1.12713e-10 m
# Mask applied: from detector
# Dark current applied: False
# Flat field applied: False
# Polarization factor: None
# Normalization factor: 1.0
# --> ROCK\\WAM39B_integrated\wam39b_rampe_1_xrd_000020_integrated.dat
#       2th_deg             I
  2.502596e+01    4.727907e+03
  2.504885e+01    1.242322e+04
  2.507173e+01    1.672290e+04
  2.509462e+01    1.774733e+04
  2.511750e+01    1.939888e+04
  2.514039e+01    2.009643e+04
  2.516327e+01    2.003384e+04
  2.518616e+01    1.986763e+04
  2.520905e+01    1.975213e+04
  2.523193e+01    1.951941e+04
  2.525482e+01    1.960535e+04
  2.527770e+01    1.999383e+04
  2.530059e+01    1.993113e+04
  2.532347e+01    1.977209e+04
  2.534636e+01    1.965212e+04
  2.536924e+01    1.962072e+04
  2.539213e+01    1.970234e+04
  2.541501e+01    1.980927e+04
  2.543790e+01    1.993683e+04
  2.546078e+01    2.013610e+04
  2.548367e+01    2.028898e+04
  2.550656e+01    2.033843e+04
  2.552944e+01    2.048257e+04
  2.555233e+01    2.098910e+04
  2.557521e+01    2.133191e+04
  2.559810e+01    2.145935e+04
  2.562098e+01    2.163408e+04
  2.564387e+01    2.183268e+04
  2.566675e+01    2.203495e+04
  2.568964e+01    2.212504e+04
  2.571252e+01    2.218103e+04
  2.573541e+01    2.221660e+04
  2.575829e+01    2.206688e+04
  2.578118e+01    2.173139e+04
  2.580407e+01    2.140940e+04
  2.582695e+01    2.110361e+04
  2.584984e+01    2.080601e+04
  2.587272e+01    2.056666e+04
  2.589561e+01    2.046867e+04
  2.591849e+01    2.035565e+04
  2.594138e+01    2.031752e+04
  2.596426e+01    2.039289e+04
  2.598715e+01    2.043204e+04
  2.601003e+01    2.061192e+04
  2.603292e+01    2.077294e+04
  2.605580e+01    2.095240e+04
  2.607869e+01    2.121348e+04
  2.610157e+01    2.149235e+04
  2.612446e+01    2.181678e+04
  2.614735e+01    2.221715e+04
  2.617023e+01    2.265992e+04
  2.619312e+01    2.322459e+04
  2.621600e+01    2.401732e+04
  2.623889e+01    2.498828e+04
  2.626177e+01    2.638247e+04
  2.628466e+01    2.825907e+04
  2.630754e+01    3.054836e+04
  2.633043e+01    3.278425e+04
  2.635331e+01    3.424950e+04
  2.637620e+01    3.436621e+04
  2.639908e+01    3.307619e+04
  2.642197e+01    3.105318e+04
  2.644486e+01    2.907824e+04
  2.646774e+01    2.764820e+04
  2.649063e+01    2.660550e+04
  2.651351e+01    2.601367e+04
  2.653640e+01    2.561109e+04
  2.655928e+01    2.533795e+04
  2.658217e+01    2.512692e+04
  2.660505e+01    2.494076e+04
  2.662794e+01    2.473218e+04
  2.665082e+01    2.443612e+04
  2.667371e+01    2.410470e+04
  2.669659e+01    2.372673e+04
  2.671948e+01    2.328777e+04
  2.674237e+01    2.281268e+04
  2.676525e+01    2.230909e+04
  2.678814e+01    2.178937e+04
  2.681102e+01    2.129088e+04
  2.683391e+01    2.077509e+04
  2.685679e+01    2.031393e+04
  2.687968e+01    1.990659e+04
  2.690256e+01    1.946610e+04
  2.692545e+01    1.911081e+04
  2.694833e+01    1.877178e+04
  2.697122e+01    1.846699e+04
  2.699410e+01    1.821473e+04
  2.701699e+01    1.802959e+04
  2.703988e+01    1.779213e+04
  2.706276e+01    1.760471e+04
  2.708565e+01    1.746445e+04
  2.710853e+01    1.732263e+04
  2.713142e+01    1.719706e+04
  2.715430e+01    1.708071e+04
  2.717719e+01    1.697356e+04
  2.720007e+01    1.685228e+04
  2.722296e+01    1.675535e+04
  2.724584e+01    1.666171e+04
  2.726873e+01    1.661177e+04
  2.729161e+01    1.654142e+04
  2.731450e+01    1.649220e+04
  2.733738e+01    1.643124e+04
  2.736027e+01    1.637035e+04
  2.738316e+01    1.633595e+04
  2.740604e+01    1.630208e+04
  2.742893e+01    1.629233e+04
  2.745181e+01    1.630701e+04
  2.747470e+01    1.629890e+04
  2.749758e+01    1.629048e+04
  2.752047e+01    1.627856e+04
  2.754335e+01    1.629002e+04
  2.756624e+01    1.633592e+04
  2.758912e+01    1.638911e+04
  2.761201e+01    1.643872e+04
  2.763489e+01    1.649077e+04
  2.765778e+01    1.658079e+04
  2.768067e+01    1.669974e+04
  2.770355e+01    1.686143e+04
  2.772644e+01    1.702706e+04
  2.774932e+01    1.723163e+04
  2.777221e+01    1.750755e+04
  2.779509e+01    1.784825e+04
  2.781798e+01    1.827164e+04
  2.784086e+01    1.874207e+04
  2.786375e+01    1.929095e+04
  2.788663e+01    1.990859e+04
  2.790952e+01    2.062733e+04
  2.793240e+01    2.148553e+04
  2.795529e+01    2.233190e+04
  2.797818e+01    2.288688e+04
  2.800106e+01    2.284200e+04
  2.802395e+01    2.207882e+04
  2.804683e+01    2.079420e+04
  2.806972e+01    1.939020e+04
  2.809260e+01    1.817438e+04
  2.811549e+01    1.723255e+04
  2.813837e+01    1.655449e+04
  2.816126e+01    1.605845e+04
  2.818414e+01    1.569000e+04
  2.820703e+01    1.540628e+04
  2.822991e+01    1.516989e+04
  2.825280e+01    1.497309e+04
  2.827568e+01    1.481597e+04
  2.829857e+01    1.467928e+04
  2.832146e+01    1.455877e+04
  2.834434e+01    1.443517e+04
  2.836723e+01    1.433330e+04
  2.839011e+01    1.424954e+04
  2.841300e+01    1.416516e+04
  2.843588e+01    1.410013e+04
  2.845877e+01    1.401993e+04
  2.848165e+01    1.394648e+04
  2.850454e+01    1.389473e+04
  2.852742e+01    1.384350e+04
  2.855031e+01    1.379189e+04
  2.857319e+01    1.372811e+04
  2.859608e+01    1.367487e+04
  2.861897e+01    1.362601e+04
  2.864185e+01    1.356590e+04
  2.866474e+01    1.351693e+04
  2.868762e+01    1.344388e+04
  2.871051e+01    1.339628e+04
  2.873339e+01    1.335445e+04
  2.875628e+01    1.329881e+04
  2.877916e+01    1.325925e+04
  2.880205e+01    1.320910e+04
  2.882493e+01    1.316206e+04
  2.884782e+01    1.311857e+04
  2.887070e+01    1.307281e+04
  2.889359e+01    1.302113e+04
  2.891648e+01    1.297134e+04
  2.893936e+01    1.292428e+04
  2.896225e+01    1.287338e+04
  2.898513e+01    1.283313e+04
  2.900802e+01    1.279931e+04
  2.903090e+01    1.274653e+04
  2.905379e+01    1.269251e+04
  2.907667e+01    1.265417e+04
  2.909956e+01    1.261776e+04
  2.912244e+01    1.257158e+04
  2.914533e+01    1.252856e+04
  2.916821e+01    1.250431e+04
  2.919110e+01    1.247720e+04
  2.921398e+01    1.244377e+04
  2.923687e+01    1.241169e+04
  2.925976e+01    1.237582e+04
  2.928264e+01    1.234969e+04
  2.930553e+01    1.233193e+04
  2.932841e+01    1.231154e+04
  2.935130e+01    1.230210e+04
  2.937418e+01    1.231537e+04
  2.939707e+01    1.236768e+04
  2.941995e+01    1.244354e+04
  2.944284e+01    1.258535e+04
  2.946572e+01    1.283371e+04
  2.948861e+01    1.316173e+04
  2.951149e+01    1.350979e+04
  2.953438e+01    1.376061e+04
  2.955727e+01    1.376475e+04
  2.958015e+01    1.350886e+04
  2.960304e+01    1.310943e+04
  2.962592e+01    1.268385e+04
  2.964881e+01    1.233642e+04
  2.967169e+01    1.209970e+04
  2.969458e+01    1.194995e+04
  2.971746e+01    1.183929e+04
  2.974035e+01    1.176200e+04
  2.976323e+01    1.169987e+04
  2.978612e+01    1.166374e+04
  2.980900e+01    1.163481e+04
  2.983189e+01    1.160391e+04
  2.985478e+01    1.157672e+04
  2.987766e+01    1.154448e+04
  2.990055e+01    1.152684e+04
  2.992343e+01    1.151465e+04
  2.994632e+01    1.150260e+04
  2.996920e+01    1.149595e+04
  2.999209e+01    1.149748e+04
  3.001497e+01    1.150184e+04
  3.003786e+01    1.149207e+04
  3.006074e+01    1.149289e+04
  3.008363e+01    1.150444e+04
  3.010651e+01    1.152244e+04
  3.012940e+01    1.155366e+04
  3.015228e+01    1.155601e+04
  3.017517e+01    1.156924e+04
  3.019806e+01    1.160155e+04
  3.022094e+01    1.161897e+04
  3.024383e+01    1.164486e+04
  3.026671e+01    1.168637e+04
  3.028960e+01    1.174233e+04
  3.031248e+01    1.180464e+04
  3.033537e+01    1.188431e+04
  3.035825e+01    1.197571e+04
  3.038114e+01    1.207872e+04
  3.040402e+01    1.220243e+04
  3.042691e+01    1.235142e+04
  3.044979e+01    1.251061e+04
  3.047268e+01    1.268933e+04
  3.049557e+01    1.289539e+04
  3.051845e+01    1.313176e+04
  3.054134e+01    1.340350e+04
  3.056422e+01    1.373599e+04
  3.058711e+01    1.410467e+04
  3.060999e+01    1.448725e+04
  3.063288e+01    1.491093e+04
  3.065576e+01    1.537237e+04
  3.067865e+01    1.585624e+04
  3.070153e+01    1.636008e+04
  3.072442e+01    1.685340e+04
  3.074730e+01    1.734591e+04
  3.077019e+01    1.782022e+04
  3.079308e+01    1.827902e+04
  3.081596e+01    1.870877e+04
  3.083885e+01    1.917340e+04
  3.086173e+01    1.973381e+04
  3.088462e+01    2.050815e+04
  3.090750e+01    2.166433e+04
  3.093039e+01    2.347272e+04
  3.095327e+01    2.613716e+04
  3.097616e+01    2.947101e+04
  3.099904e+01    3.251559e+04
  3.102193e+01    3.391506e+04
  3.104481e+01    3.282996e+04
  3.106770e+01    2.951989e+04
  3.109059e+01    2.520969e+04
  3.111347e+01    2.130769e+04
  3.113636e+01    1.839599e+04
  3.115924e+01    1.640144e+04
  3.118213e+01    1.507571e+04
  3.120501e+01    1.416967e+04
  3.122790e+01    1.351208e+04
  3.125078e+01    1.301657e+04
  3.127367e+01    1.263215e+04
  3.129655e+01    1.234017e+04
  3.131944e+01    1.209904e+04
  3.134232e+01    1.188069e+04
  3.136521e+01    1.169643e+04
  3.138809e+01    1.154218e+04
  3.141098e+01    1.141033e+04
  3.143387e+01    1.130497e+04
  3.145675e+01    1.121415e+04
  3.147964e+01    1.112321e+04
  3.150252e+01    1.103377e+04
  3.152541e+01    1.095584e+04
  3.154829e+01    1.087932e+04
  3.157118e+01    1.082806e+04
  3.159406e+01    1.078487e+04
  3.161695e+01    1.074126e+04
  3.163983e+01    1.070250e+04
  3.166272e+01    1.066885e+04
  3.168560e+01    1.063581e+04
  3.170849e+01    1.061244e+04
  3.173138e+01    1.057729e+04
  3.175426e+01    1.054575e+04
  3.177715e+01    1.052863e+04
  3.180003e+01    1.050911e+04
  3.182292e+01    1.048769e+04
  3.184580e+01    1.047669e+04
  3.186869e+01    1.047341e+04
  3.189157e+01    1.045738e+04
  3.191446e+01    1.043729e+04
  3.193734e+01    1.043452e+04
  3.196023e+01    1.042579e+04
  3.198311e+01    1.041028e+04
  3.200600e+01    1.039381e+04
  3.202889e+01    1.038840e+04
  3.205177e+01    1.038334e+04
  3.207466e+01    1.036362e+04
  3.209754e+01    1.033528e+04
  3.212043e+01    1.032199e+04
  3.214331e+01    1.030733e+04
  3.216620e+01    1.028967e+04
  3.218908e+01    1.025937e+04
  3.221197e+01    1.023672e+04
  3.223485e+01    1.022395e+04
  3.225774e+01    1.022243e+04
  3.228062e+01    1.023730e+04
  3.230351e+01    1.027686e+04
  3.232639e+01    1.036281e+04
  3.234928e+01    1.051736e+04
  3.237217e+01    1.077189e+04
  3.239505e+01    1.108365e+04
  3.241794e+01    1.136511e+04
  3.244082e+01    1.148291e+04
  3.246371e+01    1.138359e+04
  3.248659e+01    1.107960e+04
  3.250948e+01    1.069630e+04
  3.253236e+01    1.035142e+04
  3.255525e+01    1.009025e+04
  3.257813e+01    9.912716e+03
  3.260102e+01    9.800623e+03
  3.262390e+01    9.724497e+03
  3.264679e+01    9.663274e+03
  3.266968e+01    9.617809e+03
  3.269256e+01    9.576316e+03
  3.271545e+01    9.542405e+03
  3.273833e+01    9.510708e+03
  3.276122e+01    9.473454e+03
  3.278410e+01    9.454713e+03
  3.280699e+01    9.440363e+03
  3.282987e+01    9.424301e+03
  3.285276e+01    9.403064e+03
  3.287564e+01    9.383808e+03
  3.289853e+01    9.367293e+03
  3.292141e+01    9.340471e+03
  3.294430e+01    9.325259e+03
  3.296719e+01    9.311724e+03
  3.299007e+01    9.295906e+03
  3.301296e+01    9.283554e+03
  3.303584e+01    9.272911e+03
  3.305873e+01    9.261053e+03
  3.308161e+01    9.250359e+03
  3.310450e+01    9.240865e+03
  3.312738e+01    9.231259e+03
  3.315027e+01    9.232460e+03
  3.317315e+01    9.230700e+03
  3.319604e+01    9.224536e+03
  3.321892e+01    9.223935e+03
  3.324181e+01    9.227534e+03
  3.326469e+01    9.224973e+03
  3.328758e+01    9.233872e+03
  3.331047e+01    9.243594e+03
  3.333335e+01    9.235359e+03
  3.335624e+01    9.227796e+03
  3.337912e+01    9.225423e+03
  3.340201e+01    9.227768e+03
  3.342489e+01    9.241562e+03
  3.344778e+01    9.255998e+03
  3.347066e+01    9.269102e+03
  3.349355e+01    9.293176e+03
  3.351643e+01    9.333558e+03
  3.353932e+01    9.395641e+03
  3.356220e+01    9.483607e+03
  3.358509e+01    9.606250e+03
  3.360798e+01    9.778470e+03
  3.363086e+01    1.005484e+04
  3.365375e+01    1.050477e+04
  3.367663e+01    1.121434e+04
  3.369952e+01    1.237751e+04
  3.372240e+01    1.420173e+04
  3.374529e+01    1.671660e+04
  3.376817e+01    1.951907e+04
  3.379106e+01    2.165590e+04
  3.381394e+01    2.218652e+04
  3.383683e+01    2.086030e+04
  3.385971e+01    1.828219e+04
  3.388260e+01    1.548768e+04
  3.390549e+01    1.323559e+04
  3.392837e+01    1.171253e+04
  3.395126e+01    1.075572e+04
  3.397414e+01    1.018120e+04
  3.399703e+01    9.821867e+03
  3.401991e+01    9.594575e+03
  3.404280e+01    9.443016e+03
  3.406568e+01    9.324804e+03
  3.408857e+01    9.240263e+03
  3.411145e+01    9.182659e+03
  3.413434e+01    9.138844e+03
  3.415722e+01    9.102217e+03
  3.418011e+01    9.071537e+03
  3.420300e+01    9.049671e+03
  3.422588e+01    9.032764e+03
  3.424877e+01    9.008877e+03
  3.427165e+01    8.985249e+03
  3.429454e+01    8.952948e+03
  3.431742e+01    8.922330e+03
  3.434031e+01    8.898544e+03
  3.436319e+01    8.867769e+03
  3.438608e+01    8.827820e+03
  3.440896e+01    8.793463e+03
  3.443185e+01    8.755761e+03
  3.445473e+01    8.729808e+03
  3.447762e+01    8.698791e+03
  3.450050e+01    8.674987e+03
  3.452339e+01    8.655772e+03
  3.454628e+01    8.641961e+03
  3.456916e+01    8.621525e+03
  3.459205e+01    8.603912e+03
  3.461493e+01    8.589446e+03
  3.463782e+01    8.581857e+03
  3.466070e+01    8.575235e+03
  3.468359e+01    8.569958e+03
  3.470647e+01    8.578037e+03
  3.472936e+01    8.577833e+03
  3.475224e+01    8.577683e+03
  3.477513e+01    8.588823e+03
  3.479801e+01    8.610929e+03
  3.482090e+01    8.636812e+03
  3.484379e+01    8.663840e+03
  3.486667e+01    8.715149e+03
  3.488956e+01    8.768411e+03
  3.491244e+01    8.816624e+03
  3.493533e+01    8.873780e+03
  3.495821e+01    8.921017e+03
  3.498110e+01    8.970104e+03
  3.500398e+01    9.013770e+03
  3.502687e+01    9.027539e+03
  3.504975e+01    9.010938e+03
  3.507264e+01    8.977038e+03
  3.509552e+01    8.913811e+03
  3.511841e+01    8.844059e+03
  3.514130e+01    8.768758e+03
  3.516418e+01    8.694032e+03
  3.518707e+01    8.614983e+03
  3.520995e+01    8.557449e+03
  3.523284e+01    8.501973e+03
  3.525572e+01    8.452277e+03
  3.527861e+01    8.401283e+03
  3.530149e+01    8.365170e+03
  3.532438e+01    8.326498e+03
  3.534726e+01    8.299462e+03
  3.537015e+01    8.270043e+03
  3.539303e+01    8.245855e+03
  3.541592e+01    8.227808e+03
  3.543880e+01    8.196583e+03
  3.546169e+01    8.182942e+03
  3.548458e+01    8.162213e+03
  3.550746e+01    8.146832e+03
  3.553035e+01    8.130691e+03
  3.555323e+01    8.110756e+03
  3.557612e+01    8.098948e+03
  3.559900e+01    8.088929e+03
  3.562189e+01    8.074259e+03
  3.564477e+01    8.062362e+03
  3.566766e+01    8.052311e+03
  3.569054e+01    8.041470e+03
  3.571343e+01    8.036172e+03
  3.573631e+01    8.037736e+03
  3.575920e+01    8.027801e+03
  3.578209e+01    8.019369e+03
  3.580497e+01    8.019150e+03
  3.582786e+01    8.018128e+03
  3.585074e+01    8.016936e+03
  3.587363e+01    8.019577e+03
  3.589651e+01    8.020883e+03
  3.591940e+01    8.025964e+03
  3.594228e+01    8.022794e+03
  3.596517e+01    8.029678e+03
  3.598805e+01    8.041236e+03
  3.601094e+01    8.052318e+03
  3.603382e+01    8.057410e+03
  3.605671e+01    8.073999e+03
  3.607960e+01    8.095315e+03
  3.610248e+01    8.120622e+03
  3.612537e+01    8.148401e+03
  3.614825e+01    8.187258e+03
  3.617114e+01    8.235035e+03
  3.619402e+01    8.311971e+03
  3.621691e+01    8.419256e+03
  3.623979e+01    8.584254e+03
  3.626268e+01    8.855036e+03
  3.628556e+01    9.285018e+03
  3.630845e+01    9.967401e+03
  3.633133e+01    1.093212e+04
  3.635422e+01    1.204278e+04
  3.637710e+01    1.292828e+04
  3.639999e+01    1.324398e+04
  3.642288e+01    1.285235e+04
  3.644576e+01    1.189655e+04
  3.646865e+01    1.079436e+04
  3.649153e+01    9.879364e+03
  3.651442e+01    9.244424e+03
  3.653730e+01    8.867402e+03
  3.656019e+01    8.632929e+03
  3.658307e+01    8.488387e+03
  3.660596e+01    8.405658e+03
  3.662884e+01    8.344245e+03
  3.665173e+01    8.297171e+03
  3.667461e+01    8.272673e+03
  3.669750e+01    8.262897e+03
  3.672039e+01    8.254117e+03
  3.674327e+01    8.241546e+03
  3.676616e+01    8.231312e+03
  3.678904e+01    8.228883e+03
  3.681193e+01    8.236553e+03
  3.683481e+01    8.239704e+03
  3.685770e+01    8.237477e+03
  3.688058e+01    8.259162e+03
  3.690347e+01    8.273896e+03
  3.692635e+01    8.287871e+03
  3.694924e+01    8.301866e+03
  3.697212e+01    8.317259e+03
  3.699501e+01    8.345564e+03
  3.701790e+01    8.369956e+03
  3.704078e+01    8.404256e+03
  3.706367e+01    8.441486e+03
  3.708655e+01    8.482849e+03
  3.710944e+01    8.540156e+03
  3.713232e+01    8.591480e+03
  3.715521e+01    8.654905e+03
  3.717809e+01    8.730094e+03
  3.720098e+01    8.807538e+03
  3.722386e+01    8.900786e+03
  3.724675e+01    8.998277e+03
  3.726963e+01    9.115314e+03
  3.729252e+01    9.271891e+03
  3.731541e+01    9.466723e+03
  3.733829e+01    9.712291e+03
  3.736118e+01    1.002691e+04
  3.738406e+01    1.043981e+04
  3.740695e+01    1.101554e+04
  3.742983e+01    1.184321e+04
  3.745272e+01    1.306557e+04
  3.747560e+01    1.498327e+04
  3.749849e+01    1.813108e+04
  3.752137e+01    2.333180e+04
  3.754426e+01    3.156867e+04
  3.756714e+01    4.331700e+04
  3.759003e+01    5.683446e+04
  3.761291e+01    6.759730e+04
  3.763580e+01    7.122857e+04
  3.765869e+01    6.631002e+04
  3.768157e+01    5.482893e+04
  3.770446e+01    4.134276e+04
  3.772734e+01    3.005987e+04
  3.775023e+01    2.235404e+04
  3.777311e+01    1.756594e+04
  3.779600e+01    1.468679e+04
  3.781888e+01    1.290895e+04
  3.784177e+01    1.176995e+04
  3.786465e+01    1.098667e+04
  3.788754e+01    1.042928e+04
  3.791042e+01    1.002994e+04
  3.793331e+01    9.734062e+03
  3.795620e+01    9.497869e+03
  3.797908e+01    9.291954e+03
  3.800197e+01    9.125708e+03
  3.802485e+01    9.002549e+03
  3.804774e+01    8.898625e+03
  3.807062e+01    8.826915e+03
  3.809351e+01    8.766254e+03
  3.811639e+01    8.713349e+03
  3.813928e+01    8.670474e+03
  3.816216e+01    8.632497e+03
  3.818505e+01    8.597597e+03
  3.820793e+01    8.565192e+03
  3.823082e+01    8.535014e+03
  3.825371e+01    8.529255e+03
  3.827659e+01    8.528609e+03
  3.829948e+01    8.532947e+03
  3.832236e+01    8.520969e+03
  3.834525e+01    8.500526e+03
  3.836813e+01    8.487921e+03
  3.839102e+01    8.474614e+03
  3.841390e+01    8.454068e+03
  3.843679e+01    8.430551e+03
  3.845967e+01    8.419957e+03
  3.848256e+01    8.402423e+03
  3.850544e+01    8.393814e+03
  3.852833e+01    8.378711e+03
  3.855121e+01    8.370447e+03
  3.857410e+01    8.368501e+03
  3.859699e+01    8.374854e+03
  3.861987e+01    8.388100e+03
  3.864276e+01    8.410523e+03
  3.866564e+01    8.450451e+03
  3.868853e+01    8.529623e+03
  3.871141e+01    8.672699e+03
  3.873430e+01    8.926717e+03
  3.875718e+01    9.313424e+03
  3.878007e+01    9.817793e+03
  3.880295e+01    1.028942e+04
  3.882584e+01    1.058166e+04
  3.884872e+01    1.053889e+04
  3.887161e+01    1.018918e+04
  3.889450e+01    9.685915e+03
  3.891738e+01    9.204078e+03
  3.894027e+01    8.838658e+03
  3.896315e+01    8.591710e+03
  3.898604e+01    8.450653e+03
  3.900892e+01    8.366916e+03
  3.903181e+01    8.307038e+03
  3.905469e+01    8.269525e+03
  3.907758e+01    8.243084e+03
  3.910046e+01    8.226310e+03
  3.912335e+01    8.213773e+03
  3.914623e+01    8.201954e+03
  3.916912e+01    8.194467e+03
  3.919201e+01    8.203136e+03
  3.921489e+01    8.184697e+03
  3.923778e+01    8.176930e+03
  3.926066e+01    8.180283e+03
  3.928355e+01    8.180325e+03
  3.930643e+01    8.176546e+03
  3.932932e+01    8.168444e+03
  3.935220e+01    8.170916e+03
  3.937509e+01    8.176166e+03
  3.939797e+01    8.177167e+03
  3.942086e+01    8.178231e+03
  3.944374e+01    8.168415e+03
  3.946663e+01    8.175324e+03
  3.948951e+01    8.173839e+03
  3.951240e+01    8.172469e+03
  3.953529e+01    8.166538e+03
  3.955817e+01    8.177208e+03
  3.958106e+01    8.183526e+03
  3.960394e+01    8.175769e+03
  3.962683e+01    8.161728e+03
  3.964971e+01    8.151250e+03
  3.967260e+01    8.139809e+03
  3.969548e+01    8.141928e+03
  3.971837e+01    8.141644e+03
  3.974125e+01    8.126629e+03
  3.976414e+01    8.115572e+03
  3.978702e+01    8.108291e+03
  3.980991e+01    8.106481e+03
  3.983280e+01    8.114182e+03
  3.985568e+01    8.132172e+03
  3.987857e+01    8.165544e+03
  3.990145e+01    8.246745e+03
  3.992434e+01    8.328660e+03
  3.994722e+01    8.442595e+03
  3.997011e+01    8.558814e+03
  3.999299e+01    8.634456e+03
  4.001588e+01    8.635785e+03
  4.003876e+01    8.558614e+03
  4.006165e+01    8.446105e+03
  4.008453e+01    8.337573e+03
  4.010742e+01    8.249775e+03
  4.013031e+01    8.197090e+03
  4.015319e+01    8.179152e+03
  4.017608e+01    8.181297e+03
  4.019896e+01    8.194690e+03
  4.022185e+01    8.208154e+03
  4.024473e+01    8.237287e+03
  4.026762e+01    8.262945e+03
  4.029050e+01    8.288959e+03
  4.031339e+01    8.313263e+03
  4.033627e+01    8.330713e+03
  4.035916e+01    8.341639e+03
  4.038204e+01    8.337701e+03
  4.040493e+01    8.327311e+03
  4.042782e+01    8.309818e+03
  4.045070e+01    8.280741e+03
  4.047359e+01    8.249150e+03
  4.049647e+01    8.210414e+03
  4.051936e+01    8.172643e+03
  4.054224e+01    8.133080e+03
  4.056513e+01    8.087193e+03
  4.058801e+01    8.059634e+03
  4.061090e+01    8.032137e+03
  4.063378e+01    8.007124e+03
  4.065667e+01    7.984438e+03
  4.067955e+01    7.962293e+03
  4.070244e+01    7.950084e+03
  4.072532e+01    7.948498e+03
  4.074821e+01    7.943466e+03
  4.077110e+01    7.940420e+03
  4.079398e+01    7.952250e+03
  4.081687e+01    7.959493e+03
  4.083975e+01    7.979201e+03
  4.086264e+01    8.005832e+03
  4.088552e+01    8.037458e+03
  4.090841e+01    8.092098e+03
  4.093129e+01    8.168315e+03
  4.095418e+01    8.292405e+03
  4.097706e+01    8.460957e+03
  4.099995e+01    8.722511e+03
  4.102283e+01    9.158762e+03
  4.104572e+01    9.876749e+03
  4.106861e+01    1.095762e+04
  4.109149e+01    1.236209e+04
  4.111438e+01    1.373398e+04
  4.113726e+01    1.453461e+04
  4.116015e+01    1.446975e+04
  4.118303e+01    1.358418e+04
  4.120592e+01    1.221606e+04
  4.122880e+01    1.089965e+04
  4.125169e+01    9.919821e+03
  4.127457e+01    9.297223e+03
  4.129746e+01    8.931425e+03
  4.132034e+01    8.695020e+03
  4.134323e+01    8.539000e+03
  4.136612e+01    8.443460e+03
  4.138900e+01    8.364352e+03
  4.141189e+01    8.291035e+03
  4.143477e+01    8.230062e+03
  4.145766e+01    8.176419e+03
  4.148054e+01    8.133316e+03
  4.150343e+01    8.098828e+03
  4.152631e+01    8.069560e+03
  4.154920e+01    8.054851e+03
  4.157208e+01    8.037217e+03
  4.159497e+01    8.030122e+03
  4.161785e+01    8.027705e+03
  4.164074e+01    8.029157e+03
  4.166362e+01    8.028053e+03
  4.168651e+01    8.037536e+03
  4.170940e+01    8.047438e+03
  4.173228e+01    8.052707e+03
  4.175517e+01    8.055647e+03
  4.177805e+01    8.068618e+03
  4.180094e+01    8.086405e+03
  4.182382e+01    8.097488e+03
  4.184671e+01    8.117233e+03
  4.186959e+01    8.136825e+03
  4.189248e+01    8.150702e+03
  4.191536e+01    8.170049e+03
  4.193825e+01    8.194375e+03
  4.196113e+01    8.224663e+03
  4.198402e+01    8.246471e+03
  4.200691e+01    8.270672e+03
  4.202979e+01    8.300705e+03
  4.205268e+01    8.326589e+03
  4.207556e+01    8.367374e+03
  4.209845e+01    8.411756e+03
  4.212133e+01    8.475711e+03
  4.214422e+01    8.577652e+03
  4.216710e+01    8.745704e+03
  4.218999e+01    8.985420e+03
  4.221287e+01    9.280046e+03
  4.223576e+01    9.518937e+03
  4.225864e+01    9.611298e+03
  4.228153e+01    9.509922e+03
  4.230442e+01    9.258146e+03
  4.232730e+01    8.930566e+03
  4.235019e+01    8.623210e+03
  4.237307e+01    8.400837e+03
  4.239596e+01    8.242681e+03
  4.241884e+01    8.131864e+03
  4.244173e+01    8.055703e+03
  4.246461e+01    8.002881e+03
  4.248750e+01    7.955147e+03
  4.251038e+01    7.923271e+03
  4.253327e+01    7.890492e+03
  4.255615e+01    7.847566e+03
  4.257904e+01    7.818154e+03
  4.260192e+01    7.807692e+03
  4.262481e+01    7.783424e+03
  4.264770e+01    7.757681e+03
  4.267058e+01    7.753044e+03
  4.269347e+01    7.738165e+03
  4.271635e+01    7.724084e+03
  4.273924e+01    7.709493e+03
  4.276212e+01    7.696928e+03
  4.278501e+01    7.692792e+03
  4.280789e+01    7.694161e+03
  4.283078e+01    7.677887e+03
  4.285366e+01    7.680803e+03
  4.287655e+01    7.682598e+03
  4.289943e+01    7.674910e+03
  4.292232e+01    7.674541e+03
  4.294521e+01    7.696159e+03
  4.296809e+01    7.710095e+03
  4.299098e+01    7.710763e+03
  4.301386e+01    7.726810e+03
  4.303675e+01    7.740585e+03
  4.305963e+01    7.765199e+03
  4.308252e+01    7.792383e+03
  4.310540e+01    7.840723e+03
  4.312829e+01    7.891134e+03
  4.315117e+01    7.979572e+03
  4.317406e+01    8.104634e+03
  4.319694e+01    8.292850e+03
  4.321983e+01    8.590569e+03
  4.324272e+01    9.087054e+03
  4.326560e+01    9.862140e+03
  4.328849e+01    1.094721e+04
  4.331137e+01    1.217782e+04
  4.333426e+01    1.311143e+04
  4.335714e+01    1.339505e+04
  4.338003e+01    1.292434e+04
  4.340291e+01    1.191340e+04
  4.342580e+01    1.074240e+04
  4.344868e+01    9.756419e+03
  4.347157e+01    9.090211e+03
  4.349445e+01    8.685509e+03
  4.351734e+01    8.472826e+03
  4.354022e+01    8.341560e+03
  4.356311e+01    8.287278e+03
  4.358600e+01    8.270015e+03
  4.360888e+01    8.265241e+03
  4.363177e+01    8.311917e+03
  4.365465e+01    8.371870e+03
  4.367754e+01    8.446609e+03
  4.370042e+01    8.543476e+03
  4.372331e+01    8.641006e+03
  4.374619e+01    8.758795e+03
  4.376908e+01    8.879134e+03
  4.379196e+01    8.977510e+03
  4.381485e+01    9.083705e+03
  4.383773e+01    9.179585e+03
  4.386062e+01    9.273882e+03
  4.388351e+01    9.371578e+03
  4.390639e+01    9.480592e+03
  4.392928e+01    9.584950e+03
  4.395216e+01    9.728817e+03
  4.397505e+01    9.879077e+03
  4.399793e+01    1.002677e+04
  4.402082e+01    1.020072e+04
  4.404370e+01    1.038056e+04
  4.406659e+01    1.053454e+04
  4.408947e+01    1.069716e+04
  4.411236e+01    1.087378e+04
  4.413524e+01    1.104388e+04
  4.415813e+01    1.118247e+04
  4.418102e+01    1.137081e+04
  4.420390e+01    1.162648e+04
  4.422679e+01    1.195171e+04
  4.424967e+01    1.242633e+04
  4.427256e+01    1.321968e+04
  4.429544e+01    1.453506e+04
  4.431833e+01    1.669971e+04
  4.434121e+01    2.009163e+04
  4.436410e+01    2.470212e+04
  4.438698e+01    2.945998e+04
  4.440987e+01    3.245148e+04
  4.443275e+01    3.247077e+04
  4.445564e+01    2.956284e+04
  4.447853e+01    2.477609e+04
  4.450141e+01    1.977890e+04
  4.452430e+01    1.588050e+04
  4.454718e+01    1.328142e+04
  4.457007e+01    1.164850e+04
  4.459295e+01    1.064792e+04
  4.461584e+01    9.990804e+03
  4.463872e+01    9.539839e+03
  4.466161e+01    9.217714e+03
  4.468449e+01    8.972314e+03
  4.470738e+01    8.788000e+03
  4.473026e+01    8.650756e+03
  4.475315e+01    8.553483e+03
  4.477603e+01    8.452612e+03
  4.479892e+01    8.362037e+03
  4.482181e+01    8.290824e+03
  4.484469e+01    8.221504e+03
  4.486758e+01    8.154158e+03
  4.489046e+01    8.099969e+03
  4.491335e+01    8.059622e+03
  4.493623e+01    8.031633e+03
  4.495912e+01    7.982414e+03
  4.498200e+01    7.950606e+03
  4.500489e+01    7.916431e+03
  4.502777e+01    7.880200e+03
  4.505066e+01    7.856399e+03
  4.507354e+01    7.848790e+03
  4.509643e+01    7.839892e+03
  4.511932e+01    7.843570e+03
  4.514220e+01    7.841316e+03
  4.516509e+01    7.838845e+03
  4.518797e+01    7.853647e+03
  4.521086e+01    7.880543e+03
  4.523374e+01    7.922878e+03
  4.525663e+01    8.001161e+03
  4.527951e+01    8.116618e+03
  4.530240e+01    8.278898e+03
  4.532528e+01    8.550207e+03
  4.534817e+01    9.007657e+03
  4.537105e+01    9.731653e+03
  4.539394e+01    1.078461e+04
  4.541683e+01    1.216788e+04
  4.543971e+01    1.352274e+04
  4.546260e+01    1.427213e+04
  4.548548e+01    1.417101e+04
  4.550837e+01    1.328345e+04
  4.553125e+01    1.193795e+04
  4.555414e+01    1.060922e+04
  4.557702e+01    9.607076e+03
  4.559991e+01    8.962674e+03
  4.562279e+01    8.561240e+03
  4.564568e+01    8.328573e+03
  4.566856e+01    8.185345e+03
  4.569145e+01    8.098042e+03
  4.571433e+01    8.042111e+03
  4.573722e+01    7.990642e+03
  4.576011e+01    7.961578e+03
  4.578299e+01    7.973618e+03
  4.580588e+01    7.968703e+03
  4.582876e+01    7.952469e+03
  4.585165e+01    7.960715e+03
  4.587453e+01    7.965731e+03
  4.589742e+01    7.962685e+03
  4.592030e+01    7.963039e+03
  4.594319e+01    7.983225e+03
  4.596607e+01    7.993913e+03
  4.598896e+01    7.985314e+03
  4.601184e+01    7.986874e+03
  4.603473e+01    7.971030e+03
  4.605762e+01    7.964753e+03
  4.608050e+01    7.947644e+03
  4.610339e+01    7.934896e+03
  4.612627e+01    7.935823e+03
  4.614916e+01    7.914328e+03
  4.617204e+01    7.904536e+03
  4.619493e+01    7.886907e+03
  4.621781e+01    7.864182e+03
  4.624070e+01    7.851819e+03
  4.626358e+01    7.856502e+03
  4.628647e+01    7.838475e+03
  4.630935e+01    7.847059e+03
  4.633224e+01    7.889854e+03
  4.635513e+01    7.943699e+03
  4.637801e+01    8.068393e+03
  4.640090e+01    8.281794e+03
  4.642378e+01    8.622571e+03
  4.644667e+01    9.053535e+03
  4.646955e+01    9.447815e+03
  4.649244e+01    9.684498e+03
  4.651532e+01    9.642956e+03
  4.653821e+01    9.349973e+03
  4.656109e+01    8.918584e+03
  4.658398e+01    8.521674e+03
  4.660686e+01    8.237612e+03
  4.662975e+01    8.044336e+03
  4.665263e+01    7.936131e+03
  4.667552e+01    7.874324e+03
  4.669841e+01    7.838979e+03
  4.672129e+01    7.818236e+03
  4.674418e+01    7.819208e+03
  4.676706e+01    7.820048e+03
  4.678995e+01    7.838449e+03
  4.681283e+01    7.854034e+03
  4.683572e+01    7.855250e+03
  4.685860e+01    7.823900e+03
  4.688149e+01    7.788637e+03
  4.690437e+01    7.760285e+03
  4.692726e+01    7.732067e+03
  4.695014e+01    7.682548e+03
  4.697303e+01    7.635660e+03
  4.699592e+01    7.618932e+03
  4.701880e+01    7.587673e+03
  4.704169e+01    7.578475e+03
  4.706457e+01    7.569414e+03
  4.708746e+01    7.554014e+03
  4.711034e+01    7.548341e+03
  4.713323e+01    7.547315e+03
  4.715611e+01    7.527637e+03
  4.717900e+01    7.532291e+03
  4.720188e+01    7.536885e+03
  4.722477e+01    7.546399e+03
  4.724765e+01    7.572590e+03
  4.727054e+01    7.588836e+03
  4.729343e+01    7.623391e+03
  4.731631e+01    7.667180e+03
  4.733920e+01    7.716989e+03
  4.736208e+01    7.798312e+03
  4.738497e+01    7.924579e+03
  4.740785e+01    8.130033e+03
  4.743074e+01    8.396827e+03
  4.745362e+01    8.713764e+03
  4.747651e+01    9.062371e+03
  4.749939e+01    9.295088e+03
  4.752228e+01    9.337974e+03
  4.754516e+01    9.199853e+03
  4.756805e+01    8.892101e+03
  4.759094e+01    8.751612e+03
  4.761382e+01    8.654627e+03
  4.763671e+01    8.553037e+03
  4.765959e+01    8.443327e+03
  4.768248e+01    8.414770e+03
  4.770536e+01    8.386156e+03
  4.772825e+01    8.263594e+03
  4.775113e+01    8.320034e+03
  4.777402e+01    8.178616e+03
  4.779690e+01    8.180225e+03
  4.781979e+01    7.912074e+03
  4.784267e+01    7.664765e+03
  4.786556e+01    6.610417e+03
  4.788844e+01    3.223855e+03