File: Output/ROCK_XRD/WAM39B_integrated/rampe1/wam39b_rampe_1_xrd_000007_integrated.dat
# == pyFAI calibration ==
# Distance Sample to Detector: 0.261615 m
# PONI: 2.023e-01, 2.348e-01 m
# Rotations: -0.026380 0.002005 0.000000 rad
#
# == Fit2d calibration ==
# Distance Sample-beamCenter: 261.707 mm
# Center: x=6119.331, y=5134.776 pix
# Tilt: 1.516 deg  TiltPlanRot: 4.347 deg
#
# Detector Rayonix SX165	 PixelSize= 3.950e-05, 3.950e-05 m
#    Detector has a mask: True
#    Detector has a dark current: False
#    detector has a flat field: False
#
# Wavelength: 1.12713e-10 m
# Mask applied: from detector
# Dark current applied: False
# Flat field applied: False
# Polarization factor: None
# Normalization factor: 1.0
# --> ROCK\\WAM39B_integrated\wam39b_rampe_1_xrd_000007_integrated.dat
#       2th_deg             I
  2.502596e+01    5.210542e+03
  2.504885e+01    1.368738e+04
  2.507173e+01    1.841140e+04
  2.509462e+01    1.954725e+04
  2.511750e+01    2.138691e+04
  2.514039e+01    2.216795e+04
  2.516327e+01    2.208356e+04
  2.518616e+01    2.189351e+04
  2.520905e+01    2.175110e+04
  2.523193e+01    2.150676e+04
  2.525482e+01    2.160182e+04
  2.527770e+01    2.202224e+04
  2.530059e+01    2.194810e+04
  2.532347e+01    2.174941e+04
  2.534636e+01    2.158604e+04
  2.536924e+01    2.151227e+04
  2.539213e+01    2.151551e+04
  2.541501e+01    2.155174e+04
  2.543790e+01    2.162764e+04
  2.546078e+01    2.174795e+04
  2.548367e+01    2.177847e+04
  2.550656e+01    2.168114e+04
  2.552944e+01    2.169088e+04
  2.555233e+01    2.209812e+04
  2.557521e+01    2.240904e+04
  2.559810e+01    2.258153e+04
  2.562098e+01    2.287540e+04
  2.564387e+01    2.322804e+04
  2.566675e+01    2.355874e+04
  2.568964e+01    2.374073e+04
  2.571252e+01    2.389770e+04
  2.573541e+01    2.410718e+04
  2.575829e+01    2.419814e+04
  2.578118e+01    2.414875e+04
  2.580407e+01    2.410283e+04
  2.582695e+01    2.401800e+04
  2.584984e+01    2.382575e+04
  2.587272e+01    2.358034e+04
  2.589561e+01    2.339245e+04
  2.591849e+01    2.312266e+04
  2.594138e+01    2.292083e+04
  2.596426e+01    2.283472e+04
  2.598715e+01    2.267189e+04
  2.601003e+01    2.266604e+04
  2.603292e+01    2.264501e+04
  2.605580e+01    2.263192e+04
  2.607869e+01    2.270469e+04
  2.610157e+01    2.278768e+04
  2.612446e+01    2.290651e+04
  2.614735e+01    2.307269e+04
  2.617023e+01    2.324519e+04
  2.619312e+01    2.347695e+04
  2.621600e+01    2.380129e+04
  2.623889e+01    2.408357e+04
  2.626177e+01    2.446279e+04
  2.628466e+01    2.491271e+04
  2.630754e+01    2.549870e+04
  2.633043e+01    2.629198e+04
  2.635331e+01    2.744182e+04
  2.637620e+01    2.910117e+04
  2.639908e+01    3.124352e+04
  2.642197e+01    3.357220e+04
  2.644486e+01    3.537779e+04
  2.646774e+01    3.597074e+04
  2.649063e+01    3.481674e+04
  2.651351e+01    3.262716e+04
  2.653640e+01    3.018300e+04
  2.655928e+01    2.817186e+04
  2.658217e+01    2.676140e+04
  2.660505e+01    2.587885e+04
  2.662794e+01    2.534218e+04
  2.665082e+01    2.496846e+04
  2.667371e+01    2.473803e+04
  2.669659e+01    2.458417e+04
  2.671948e+01    2.446003e+04
  2.674237e+01    2.434987e+04
  2.676525e+01    2.422425e+04
  2.678814e+01    2.408900e+04
  2.681102e+01    2.395593e+04
  2.683391e+01    2.376966e+04
  2.685679e+01    2.357995e+04
  2.687968e+01    2.337925e+04
  2.690256e+01    2.307189e+04
  2.692545e+01    2.279052e+04
  2.694833e+01    2.246421e+04
  2.697122e+01    2.210213e+04
  2.699410e+01    2.176276e+04
  2.701699e+01    2.148609e+04
  2.703988e+01    2.112546e+04
  2.706276e+01    2.080585e+04
  2.708565e+01    2.054568e+04
  2.710853e+01    2.027647e+04
  2.713142e+01    2.002710e+04
  2.715430e+01    1.979706e+04
  2.717719e+01    1.958357e+04
  2.720007e+01    1.936853e+04
  2.722296e+01    1.918502e+04
  2.724584e+01    1.900454e+04
  2.726873e+01    1.889099e+04
  2.729161e+01    1.875598e+04
  2.731450e+01    1.863338e+04
  2.733738e+01    1.849917e+04
  2.736027e+01    1.838439e+04
  2.738316e+01    1.830374e+04
  2.740604e+01    1.821937e+04
  2.742893e+01    1.814522e+04
  2.745181e+01    1.810470e+04
  2.747470e+01    1.804182e+04
  2.749758e+01    1.799353e+04
  2.752047e+01    1.794606e+04
  2.754335e+01    1.791255e+04
  2.756624e+01    1.790164e+04
  2.758912e+01    1.787696e+04
  2.761201e+01    1.785049e+04
  2.763489e+01    1.783811e+04
  2.765778e+01    1.784819e+04
  2.768067e+01    1.786357e+04
  2.770355e+01    1.789965e+04
  2.772644e+01    1.791612e+04
  2.774932e+01    1.793903e+04
  2.777221e+01    1.801102e+04
  2.779509e+01    1.810834e+04
  2.781798e+01    1.824012e+04
  2.784086e+01    1.837748e+04
  2.786375e+01    1.855024e+04
  2.788663e+01    1.875381e+04
  2.790952e+01    1.900636e+04
  2.793240e+01    1.932641e+04
  2.795529e+01    1.971150e+04
  2.797818e+01    2.020919e+04
  2.800106e+01    2.087749e+04
  2.802395e+01    2.176408e+04
  2.804683e+01    2.282880e+04
  2.806972e+01    2.386551e+04
  2.809260e+01    2.448479e+04
  2.811549e+01    2.434600e+04
  2.813837e+01    2.346754e+04
  2.816126e+01    2.215161e+04
  2.818414e+01    2.081383e+04
  2.820703e+01    1.971364e+04
  2.822991e+01    1.886506e+04
  2.825280e+01    1.823368e+04
  2.827568e+01    1.775905e+04
  2.829857e+01    1.737782e+04
  2.832146e+01    1.705121e+04
  2.834434e+01    1.676466e+04
  2.836723e+01    1.652827e+04
  2.839011e+01    1.631637e+04
  2.841300e+01    1.613052e+04
  2.843588e+01    1.598530e+04
  2.845877e+01    1.583586e+04
  2.848165e+01    1.569277e+04
  2.850454e+01    1.558122e+04
  2.852742e+01    1.549197e+04
  2.855031e+01    1.541371e+04
  2.857319e+01    1.531446e+04
  2.859608e+01    1.522940e+04
  2.861897e+01    1.514432e+04
  2.864185e+01    1.504864e+04
  2.866474e+01    1.496724e+04
  2.868762e+01    1.486640e+04
  2.871051e+01    1.479517e+04
  2.873339e+01    1.474043e+04
  2.875628e+01    1.467567e+04
  2.877916e+01    1.462178e+04
  2.880205e+01    1.455583e+04
  2.882493e+01    1.449570e+04
  2.884782e+01    1.442895e+04
  2.887070e+01    1.436781e+04
  2.889359e+01    1.430682e+04
  2.891648e+01    1.424741e+04
  2.893936e+01    1.419581e+04
  2.896225e+01    1.414155e+04
  2.898513e+01    1.407849e+04
  2.900802e+01    1.403171e+04
  2.903090e+01    1.397408e+04
  2.905379e+01    1.391538e+04
  2.907667e+01    1.386983e+04
  2.909956e+01    1.381138e+04
  2.912244e+01    1.376079e+04
  2.914533e+01    1.371687e+04
  2.916821e+01    1.367393e+04
  2.919110e+01    1.362620e+04
  2.921398e+01    1.358946e+04
  2.923687e+01    1.355880e+04
  2.925976e+01    1.350950e+04
  2.928264e+01    1.346788e+04
  2.930553e+01    1.343753e+04
  2.932841e+01    1.339471e+04
  2.935130e+01    1.335192e+04
  2.937418e+01    1.332210e+04
  2.939707e+01    1.331245e+04
  2.941995e+01    1.328689e+04
  2.944284e+01    1.326922e+04
  2.946572e+01    1.328330e+04
  2.948861e+01    1.329650e+04
  2.951149e+01    1.332862e+04
  2.953438e+01    1.343950e+04
  2.955727e+01    1.361565e+04
  2.958015e+01    1.388924e+04
  2.960304e+01    1.429153e+04
  2.962592e+01    1.469938e+04
  2.964881e+01    1.496339e+04
  2.967169e+01    1.494374e+04
  2.969458e+01    1.464319e+04
  2.971746e+01    1.418372e+04
  2.974035e+01    1.372615e+04
  2.976323e+01    1.335548e+04
  2.978612e+01    1.310944e+04
  2.980900e+01    1.294354e+04
  2.983189e+01    1.282755e+04
  2.985478e+01    1.274624e+04
  2.987766e+01    1.267663e+04
  2.990055e+01    1.263755e+04
  2.992343e+01    1.261529e+04
  2.994632e+01    1.258571e+04
  2.996920e+01    1.256382e+04
  2.999209e+01    1.254891e+04
  3.001497e+01    1.254850e+04
  3.003786e+01    1.254733e+04
  3.006074e+01    1.253874e+04
  3.008363e+01    1.253318e+04
  3.010651e+01    1.253687e+04
  3.012940e+01    1.254782e+04
  3.015228e+01    1.254440e+04
  3.017517e+01    1.254804e+04
  3.019806e+01    1.257179e+04
  3.022094e+01    1.256805e+04
  3.024383e+01    1.256558e+04
  3.026671e+01    1.258423e+04
  3.028960e+01    1.261330e+04
  3.031248e+01    1.263727e+04
  3.033537e+01    1.268231e+04
  3.035825e+01    1.272420e+04
  3.038114e+01    1.275799e+04
  3.040402e+01    1.280011e+04
  3.042691e+01    1.285707e+04
  3.044979e+01    1.292435e+04
  3.047268e+01    1.298573e+04
  3.049557e+01    1.305468e+04
  3.051845e+01    1.313210e+04
  3.054134e+01    1.322017e+04
  3.056422e+01    1.333157e+04
  3.058711e+01    1.344754e+04
  3.060999e+01    1.357667e+04
  3.063288e+01    1.371992e+04
  3.065576e+01    1.388103e+04
  3.067865e+01    1.406158e+04
  3.070153e+01    1.426420e+04
  3.072442e+01    1.448582e+04
  3.074730e+01    1.474136e+04
  3.077019e+01    1.500906e+04
  3.079308e+01    1.530388e+04
  3.081596e+01    1.561028e+04
  3.083885e+01    1.594448e+04
  3.086173e+01    1.630798e+04
  3.088462e+01    1.671398e+04
  3.090750e+01    1.715616e+04
  3.093039e+01    1.766185e+04
  3.095327e+01    1.824583e+04
  3.097616e+01    1.897843e+04
  3.099904e+01    1.996658e+04
  3.102193e+01    2.141413e+04
  3.104481e+01    2.358950e+04
  3.106770e+01    2.672050e+04
  3.109059e+01    3.069407e+04
  3.111347e+01    3.463161e+04
  3.113636e+01    3.697429e+04
  3.115924e+01    3.660280e+04
  3.118213e+01    3.361168e+04
  3.120501e+01    2.921445e+04
  3.122790e+01    2.491230e+04
  3.125078e+01    2.157222e+04
  3.127367e+01    1.925923e+04
  3.129655e+01    1.769815e+04
  3.131944e+01    1.661185e+04
  3.134232e+01    1.582329e+04
  3.136521e+01    1.521752e+04
  3.138809e+01    1.473621e+04
  3.141098e+01    1.433580e+04
  3.143387e+01    1.400160e+04
  3.145675e+01    1.372007e+04
  3.147964e+01    1.347287e+04
  3.150252e+01    1.324100e+04
  3.152541e+01    1.305099e+04
  3.154829e+01    1.287323e+04
  3.157118e+01    1.271897e+04
  3.159406e+01    1.259763e+04
  3.161695e+01    1.247726e+04
  3.163983e+01    1.236574e+04
  3.166272e+01    1.227225e+04
  3.168560e+01    1.217994e+04
  3.170849e+01    1.209188e+04
  3.173138e+01    1.202285e+04
  3.175426e+01    1.194867e+04
  3.177715e+01    1.188285e+04
  3.180003e+01    1.182667e+04
  3.182292e+01    1.176598e+04
  3.184580e+01    1.171428e+04
  3.186869e+01    1.166240e+04
  3.189157e+01    1.161369e+04
  3.191446e+01    1.157001e+04
  3.193734e+01    1.152492e+04
  3.196023e+01    1.148658e+04
  3.198311e+01    1.144387e+04
  3.200600e+01    1.140232e+04
  3.202889e+01    1.136954e+04
  3.205177e+01    1.133848e+04
  3.207466e+01    1.130390e+04
  3.209754e+01    1.125713e+04
  3.212043e+01    1.122191e+04
  3.214331e+01    1.119073e+04
  3.216620e+01    1.116030e+04
  3.218908e+01    1.112409e+04
  3.221197e+01    1.109225e+04
  3.223485e+01    1.106309e+04
  3.225774e+01    1.104719e+04
  3.228062e+01    1.102892e+04
  3.230351e+01    1.100132e+04
  3.232639e+01    1.098017e+04
  3.234928e+01    1.096068e+04
  3.237217e+01    1.096438e+04
  3.239505e+01    1.097866e+04
  3.241794e+01    1.102030e+04
  3.244082e+01    1.109773e+04
  3.246371e+01    1.125128e+04
  3.248659e+01    1.150681e+04
  3.250948e+01    1.185490e+04
  3.253236e+01    1.223599e+04
  3.255525e+01    1.248445e+04
  3.257813e+01    1.247846e+04
  3.260102e+01    1.222160e+04
  3.262390e+01    1.181129e+04
  3.264679e+01    1.138982e+04
  3.266968e+01    1.105467e+04
  3.269256e+01    1.081765e+04
  3.271545e+01    1.066663e+04
  3.273833e+01    1.056770e+04
  3.276122e+01    1.049125e+04
  3.278410e+01    1.043610e+04
  3.280699e+01    1.039319e+04
  3.282987e+01    1.035305e+04
  3.285276e+01    1.032478e+04
  3.287564e+01    1.029950e+04
  3.289853e+01    1.027248e+04
  3.292141e+01    1.023357e+04
  3.294430e+01    1.021517e+04
  3.296719e+01    1.020216e+04
  3.299007e+01    1.018073e+04
  3.301296e+01    1.016208e+04
  3.303584e+01    1.014700e+04
  3.305873e+01    1.012529e+04
  3.308161e+01    1.011285e+04
  3.310450e+01    1.010318e+04
  3.312738e+01    1.009246e+04
  3.315027e+01    1.008290e+04
  3.317315e+01    1.007060e+04
  3.319604e+01    1.005644e+04
  3.321892e+01    1.004660e+04
  3.324181e+01    1.003834e+04
  3.326469e+01    1.003015e+04
  3.328758e+01    1.002950e+04
  3.331047e+01    1.002856e+04
  3.333335e+01    1.001541e+04
  3.335624e+01    1.000632e+04
  3.337912e+01    1.000714e+04
  3.340201e+01    1.000990e+04
  3.342489e+01    1.001424e+04
  3.344778e+01    1.001585e+04
  3.347066e+01    1.000787e+04
  3.349355e+01    1.000251e+04
  3.351643e+01    1.001031e+04
  3.353932e+01    1.001969e+04
  3.356220e+01    1.003486e+04
  3.358509e+01    1.005623e+04
  3.360798e+01    1.008810e+04
  3.363086e+01    1.012010e+04
  3.365375e+01    1.018250e+04
  3.367663e+01    1.025302e+04
  3.369952e+01    1.035492e+04
  3.372240e+01    1.051522e+04
  3.374529e+01    1.073458e+04
  3.376817e+01    1.108675e+04
  3.379106e+01    1.165980e+04
  3.381394e+01    1.261399e+04
  3.383683e+01    1.414632e+04
  3.385971e+01    1.649170e+04
  3.388260e+01    1.956364e+04
  3.390549e+01    2.263781e+04
  3.392837e+01    2.451609e+04
  3.395126e+01    2.436774e+04
  3.397414e+01    2.232667e+04
  3.399703e+01    1.921837e+04
  3.401991e+01    1.621120e+04
  3.404280e+01    1.395778e+04
  3.406568e+01    1.247782e+04
  3.408857e+01    1.157032e+04
  3.411145e+01    1.101620e+04
  3.413434e+01    1.065827e+04
  3.415722e+01    1.043294e+04
  3.418011e+01    1.028451e+04
  3.420300e+01    1.016414e+04
  3.422588e+01    1.007206e+04
  3.424877e+01    1.001513e+04
  3.427165e+01    9.965937e+03
  3.429454e+01    9.917378e+03
  3.431742e+01    9.886932e+03
  3.434031e+01    9.860169e+03
  3.436319e+01    9.824332e+03
  3.438608e+01    9.785457e+03
  3.440896e+01    9.758132e+03
  3.443185e+01    9.721079e+03
  3.445473e+01    9.680529e+03
  3.447762e+01    9.635573e+03
  3.450050e+01    9.608514e+03
  3.452339e+01    9.580521e+03
  3.454628e+01    9.549574e+03
  3.456916e+01    9.524659e+03
  3.459205e+01    9.497011e+03
  3.461493e+01    9.474032e+03
  3.463782e+01    9.450845e+03
  3.466070e+01    9.424193e+03
  3.468359e+01    9.408913e+03
  3.470647e+01    9.396557e+03
  3.472936e+01    9.381513e+03
  3.475224e+01    9.372220e+03
  3.477513e+01    9.364900e+03
  3.479801e+01    9.353281e+03
  3.482090e+01    9.349925e+03
  3.484379e+01    9.351251e+03
  3.486667e+01    9.361967e+03
  3.488956e+01    9.380448e+03
  3.491244e+01    9.393295e+03
  3.493533e+01    9.405075e+03
  3.495821e+01    9.415726e+03
  3.498110e+01    9.449541e+03
  3.500398e+01    9.484132e+03
  3.502687e+01    9.512247e+03
  3.504975e+01    9.548572e+03
  3.507264e+01    9.582151e+03
  3.509552e+01    9.603032e+03
  3.511841e+01    9.625527e+03
  3.514130e+01    9.634710e+03
  3.516418e+01    9.624099e+03
  3.518707e+01    9.589915e+03
  3.520995e+01    9.557839e+03
  3.523284e+01    9.517907e+03
  3.525572e+01    9.465072e+03
  3.527861e+01    9.406096e+03
  3.530149e+01    9.354879e+03
  3.532438e+01    9.296590e+03
  3.534726e+01    9.243254e+03
  3.537015e+01    9.199396e+03
  3.539303e+01    9.155079e+03
  3.541592e+01    9.121476e+03
  3.543880e+01    9.076651e+03
  3.546169e+01    9.039672e+03
  3.548458e+01    9.014066e+03
  3.550746e+01    8.980921e+03
  3.553035e+01    8.948475e+03
  3.555323e+01    8.922790e+03
  3.557612e+01    8.899072e+03
  3.559900e+01    8.878791e+03
  3.562189e+01    8.862800e+03
  3.564477e+01    8.842954e+03
  3.566766e+01    8.824822e+03
  3.569054e+01    8.805677e+03
  3.571343e+01    8.795328e+03
  3.573631e+01    8.789950e+03
  3.575920e+01    8.774705e+03
  3.578209e+01    8.768913e+03
  3.580497e+01    8.766635e+03
  3.582786e+01    8.755501e+03
  3.585074e+01    8.744524e+03
  3.587363e+01    8.741808e+03
  3.589651e+01    8.734704e+03
  3.591940e+01    8.735295e+03
  3.594228e+01    8.729979e+03
  3.596517e+01    8.730565e+03
  3.598805e+01    8.735878e+03
  3.601094e+01    8.732965e+03
  3.603382e+01    8.731934e+03
  3.605671e+01    8.738435e+03
  3.607960e+01    8.749885e+03
  3.610248e+01    8.753188e+03
  3.612537e+01    8.756329e+03
  3.614825e+01    8.769972e+03
  3.617114e+01    8.786115e+03
  3.619402e+01    8.797115e+03
  3.621691e+01    8.815718e+03
  3.623979e+01    8.836657e+03
  3.626268e+01    8.867195e+03
  3.628556e+01    8.902596e+03
  3.630845e+01    8.949382e+03
  3.633133e+01    9.030857e+03
  3.635422e+01    9.145135e+03
  3.637710e+01    9.314496e+03
  3.639999e+01    9.594974e+03
  3.642288e+01    1.005806e+04
  3.644576e+01    1.079118e+04
  3.646865e+01    1.187134e+04
  3.649153e+01    1.315519e+04
  3.651442e+01    1.422878e+04
  3.653730e+01    1.468013e+04
  3.656019e+01    1.430405e+04
  3.658307e+01    1.327617e+04
  3.660596e+01    1.202264e+04
  3.662884e+01    1.094229e+04
  3.665173e+01    1.017792e+04
  3.667461e+01    9.707457e+03
  3.669750e+01    9.420458e+03
  3.672039e+01    9.236314e+03
  3.674327e+01    9.121211e+03
  3.676616e+01    9.049229e+03
  3.678904e+01    9.009930e+03
  3.681193e+01    8.984975e+03
  3.683481e+01    8.965138e+03
  3.685770e+01    8.942773e+03
  3.688058e+01    8.941409e+03
  3.690347e+01    8.939302e+03
  3.692635e+01    8.940439e+03
  3.694924e+01    8.939042e+03
  3.697212e+01    8.944103e+03
  3.699501e+01    8.958941e+03
  3.701790e+01    8.967974e+03
  3.704078e+01    8.978338e+03
  3.706367e+01    8.989639e+03
  3.708655e+01    9.001469e+03
  3.710944e+01    9.031269e+03
  3.713232e+01    9.054741e+03
  3.715521e+01    9.092688e+03
  3.717809e+01    9.136391e+03
  3.720098e+01    9.179211e+03
  3.722386e+01    9.227785e+03
  3.724675e+01    9.274380e+03
  3.726963e+01    9.325430e+03
  3.729252e+01    9.386014e+03
  3.731541e+01    9.445173e+03
  3.733829e+01    9.513298e+03
  3.736118e+01    9.602979e+03
  3.738406e+01    9.709670e+03
  3.740695e+01    9.847293e+03
  3.742983e+01    1.001071e+04
  3.745272e+01    1.021214e+04
  3.747560e+01    1.045951e+04
  3.749849e+01    1.078100e+04
  3.752137e+01    1.121371e+04
  3.754426e+01    1.178245e+04
  3.756714e+01    1.257345e+04
  3.759003e+01    1.372994e+04
  3.761291e+01    1.553096e+04
  3.763580e+01    1.846163e+04
  3.765869e+01    2.331208e+04
  3.768157e+01    3.125059e+04
  3.770446e+01    4.325564e+04
  3.772734e+01    5.833847e+04
  3.775023e+01    7.218942e+04
  3.777311e+01    7.927289e+04
  3.779600e+01    7.684154e+04
  3.781888e+01    6.600228e+04
  3.784177e+01    5.118389e+04
  3.786465e+01    3.745145e+04
  3.788754e+01    2.744151e+04
  3.791042e+01    2.105134e+04
  3.793331e+01    1.717179e+04
  3.795620e+01    1.479574e+04
  3.797908e+01    1.327111e+04
  3.800197e+01    1.226379e+04
  3.802485e+01    1.155583e+04
  3.804774e+01    1.104207e+04
  3.807062e+01    1.066875e+04
  3.809351e+01    1.038876e+04
  3.811639e+01    1.017171e+04
  3.813928e+01    9.989031e+03
  3.816216e+01    9.835850e+03
  3.818505e+01    9.718868e+03
  3.820793e+01    9.605980e+03
  3.823082e+01    9.512925e+03
  3.825371e+01    9.450503e+03
  3.827659e+01    9.406196e+03
  3.829948e+01    9.371005e+03
  3.832236e+01    9.323393e+03
  3.834525e+01    9.281297e+03
  3.836813e+01    9.250100e+03
  3.839102e+01    9.222345e+03
  3.841390e+01    9.204291e+03
  3.843679e+01    9.182546e+03
  3.845967e+01    9.165689e+03
  3.848256e+01    9.147896e+03
  3.850544e+01    9.135419e+03
  3.852833e+01    9.118919e+03
  3.855121e+01    9.105438e+03
  3.857410e+01    9.094050e+03
  3.859699e+01    9.078666e+03
  3.861987e+01    9.061740e+03
  3.864276e+01    9.048760e+03
  3.866564e+01    9.035404e+03
  3.868853e+01    9.032873e+03
  3.871141e+01    9.030604e+03
  3.873430e+01    9.032197e+03
  3.875718e+01    9.041734e+03
  3.878007e+01    9.073682e+03
  3.880295e+01    9.104269e+03
  3.882584e+01    9.175356e+03
  3.884872e+01    9.296688e+03
  3.887161e+01    9.509749e+03
  3.889450e+01    9.855761e+03
  3.891738e+01    1.036845e+04
  3.894027e+01    1.096817e+04
  3.896315e+01    1.144199e+04
  3.898604e+01    1.161539e+04
  3.900892e+01    1.140253e+04
  3.903181e+01    1.090846e+04
  3.905469e+01    1.032056e+04
  3.907758e+01    9.800532e+03
  3.910046e+01    9.440382e+03
  3.912335e+01    9.214042e+03
  3.914623e+01    9.075336e+03
  3.916912e+01    8.995147e+03
  3.919201e+01    8.954511e+03
  3.921489e+01    8.905035e+03
  3.923778e+01    8.878403e+03
  3.926066e+01    8.850497e+03
  3.928355e+01    8.824881e+03
  3.930643e+01    8.810564e+03
  3.932932e+01    8.806196e+03
  3.935220e+01    8.800882e+03
  3.937509e+01    8.790575e+03
  3.939797e+01    8.780395e+03
  3.942086e+01    8.766268e+03
  3.944374e+01    8.749893e+03
  3.946663e+01    8.751361e+03
  3.948951e+01    8.745182e+03
  3.951240e+01    8.730906e+03
  3.953529e+01    8.726985e+03
  3.955817e+01    8.730179e+03
  3.958106e+01    8.724830e+03
  3.960394e+01    8.714629e+03
  3.962683e+01    8.703046e+03
  3.964971e+01    8.703356e+03
  3.967260e+01    8.699531e+03
  3.969548e+01    8.692722e+03
  3.971837e+01    8.693339e+03
  3.974125e+01    8.690714e+03
  3.976414e+01    8.678912e+03
  3.978702e+01    8.673317e+03
  3.980991e+01    8.666174e+03
  3.983280e+01    8.663227e+03
  3.985568e+01    8.671013e+03
  3.987857e+01    8.684127e+03
  3.990145e+01    8.704510e+03
  3.992434e+01    8.690281e+03
  3.994722e+01    8.693436e+03
  3.997011e+01    8.699767e+03
  3.999299e+01    8.709575e+03
  4.001588e+01    8.738757e+03
  4.003876e+01    8.790456e+03
  4.006165e+01    8.877702e+03
  4.008453e+01    9.011916e+03
  4.010742e+01    9.170103e+03
  4.013031e+01    9.312223e+03
  4.015319e+01    9.394406e+03
  4.017608e+01    9.389867e+03
  4.019896e+01    9.296172e+03
  4.022185e+01    9.153130e+03
  4.024473e+01    9.032613e+03
  4.026762e+01    8.956619e+03
  4.029050e+01    8.909236e+03
  4.031339e+01    8.889727e+03
  4.033627e+01    8.893058e+03
  4.035916e+01    8.909538e+03
  4.038204e+01    8.930365e+03
  4.040493e+01    8.956995e+03
  4.042782e+01    8.978423e+03
  4.045070e+01    9.001470e+03
  4.047359e+01    9.020825e+03
  4.049647e+01    9.029482e+03
  4.051936e+01    9.040772e+03
  4.054224e+01    9.039960e+03
  4.056513e+01    9.027997e+03
  4.058801e+01    9.009015e+03
  4.061090e+01    8.982082e+03
  4.063378e+01    8.954635e+03
  4.065667e+01    8.920986e+03
  4.067955e+01    8.885575e+03
  4.070244e+01    8.847519e+03
  4.072532e+01    8.821130e+03
  4.074821e+01    8.785505e+03
  4.077110e+01    8.754692e+03
  4.079398e+01    8.731258e+03
  4.081687e+01    8.703659e+03
  4.083975e+01    8.682001e+03
  4.086264e+01    8.664567e+03
  4.088552e+01    8.649986e+03
  4.090841e+01    8.641302e+03
  4.093129e+01    8.646280e+03
  4.095418e+01    8.651360e+03
  4.097706e+01    8.653536e+03
  4.099995e+01    8.672826e+03
  4.102283e+01    8.695508e+03
  4.104572e+01    8.727208e+03
  4.106861e+01    8.774617e+03
  4.109149e+01    8.860671e+03
  4.111438e+01    8.991678e+03
  4.113726e+01    9.177482e+03
  4.116015e+01    9.472052e+03
  4.118303e+01    9.961242e+03
  4.120592e+01    1.078033e+04
  4.122880e+01    1.203659e+04
  4.125169e+01    1.364963e+04
  4.127457e+01    1.520094e+04
  4.129746e+01    1.608688e+04
  4.132034e+01    1.596431e+04
  4.134323e+01    1.492442e+04
  4.136612e+01    1.337563e+04
  4.138900e+01    1.185088e+04
  4.141189e+01    1.071054e+04
  4.143477e+01    9.974568e+03
  4.145766e+01    9.543259e+03
  4.148054e+01    9.289229e+03
  4.150343e+01    9.128388e+03
  4.152631e+01    9.027883e+03
  4.154920e+01    8.976832e+03
  4.157208e+01    8.933201e+03
  4.159497e+01    8.906484e+03
  4.161785e+01    8.895836e+03
  4.164074e+01    8.884695e+03
  4.166362e+01    8.862664e+03
  4.168651e+01    8.840601e+03
  4.170940e+01    8.812950e+03
  4.173228e+01    8.782671e+03
  4.175517e+01    8.755980e+03
  4.177805e+01    8.731811e+03
  4.180094e+01    8.712450e+03
  4.182382e+01    8.690749e+03
  4.184671e+01    8.672218e+03
  4.186959e+01    8.666543e+03
  4.189248e+01    8.650256e+03
  4.191536e+01    8.636185e+03
  4.193825e+01    8.634867e+03
  4.196113e+01    8.628863e+03
  4.198402e+01    8.624858e+03
  4.200691e+01    8.623806e+03
  4.202979e+01    8.617382e+03
  4.205268e+01    8.622356e+03
  4.207556e+01    8.633670e+03
  4.209845e+01    8.633965e+03
  4.212133e+01    8.629973e+03
  4.214422e+01    8.634690e+03
  4.216710e+01    8.648986e+03
  4.218999e+01    8.664383e+03
  4.221287e+01    8.684764e+03
  4.223576e+01    8.707022e+03
  4.225864e+01    8.741975e+03
  4.228153e+01    8.798039e+03
  4.230442e+01    8.902776e+03
  4.232730e+01    9.082703e+03
  4.235019e+01    9.361865e+03
  4.237307e+01    9.717881e+03
  4.239596e+01    1.002915e+04
  4.241884e+01    1.019673e+04
  4.244173e+01    1.014370e+04
  4.246461e+01    9.881710e+03
  4.248750e+01    9.509111e+03
  4.251038e+01    9.168164e+03
  4.253327e+01    8.892265e+03
  4.255615e+01    8.711444e+03
  4.257904e+01    8.601487e+03
  4.260192e+01    8.534405e+03
  4.262481e+01    8.475367e+03
  4.264770e+01    8.428666e+03
  4.267058e+01    8.411803e+03
  4.269347e+01    8.384402e+03
  4.271635e+01    8.358073e+03
  4.273924e+01    8.341747e+03
  4.276212e+01    8.325862e+03
  4.278501e+01    8.307831e+03
  4.280789e+01    8.304798e+03
  4.283078e+01    8.283332e+03
  4.285366e+01    8.271019e+03
  4.287655e+01    8.261246e+03
  4.289943e+01    8.255425e+03
  4.292232e+01    8.253885e+03
  4.294521e+01    8.261106e+03
  4.296809e+01    8.260892e+03
  4.299098e+01    8.247225e+03
  4.301386e+01    8.243946e+03
  4.303675e+01    8.257903e+03
  4.305963e+01    8.265750e+03
  4.308252e+01    8.263042e+03
  4.310540e+01    8.268385e+03
  4.312829e+01    8.266379e+03
  4.315117e+01    8.290309e+03
  4.317406e+01    8.308883e+03
  4.319694e+01    8.332957e+03
  4.321983e+01    8.359174e+03
  4.324272e+01    8.398888e+03
  4.326560e+01    8.446995e+03
  4.328849e+01    8.498501e+03
  4.331137e+01    8.588612e+03
  4.333426e+01    8.703377e+03
  4.335714e+01    8.889761e+03
  4.338003e+01    9.173556e+03
  4.340291e+01    9.644406e+03
  4.342580e+01    1.040602e+04
  4.344868e+01    1.152389e+04
  4.347157e+01    1.292107e+04
  4.349445e+01    1.418647e+04
  4.351734e+01    1.481617e+04
  4.354022e+01    1.457084e+04
  4.356311e+01    1.362877e+04
  4.358600e+01    1.230014e+04
  4.360888e+01    1.106347e+04
  4.363177e+01    1.017703e+04
  4.365465e+01    9.617417e+03
  4.367754e+01    9.294109e+03
  4.370042e+01    9.122958e+03
  4.372331e+01    9.015746e+03
  4.374619e+01    8.969971e+03
  4.376908e+01    8.971496e+03
  4.379196e+01    8.974037e+03
  4.381485e+01    9.019013e+03
  4.383773e+01    9.072504e+03
  4.386062e+01    9.121966e+03
  4.388351e+01    9.187122e+03
  4.390639e+01    9.258872e+03
  4.392928e+01    9.314877e+03
  4.395216e+01    9.373801e+03
  4.397505e+01    9.424435e+03
  4.399793e+01    9.463401e+03
  4.402082e+01    9.501777e+03
  4.404370e+01    9.564710e+03
  4.406659e+01    9.615151e+03
  4.408947e+01    9.680810e+03
  4.411236e+01    9.763053e+03
  4.413524e+01    9.849358e+03
  4.415813e+01    9.933668e+03
  4.418102e+01    1.005734e+04
  4.420390e+01    1.019764e+04
  4.422679e+01    1.032639e+04
  4.424967e+01    1.047767e+04
  4.427256e+01    1.066224e+04
  4.429544e+01    1.086068e+04
  4.431833e+01    1.107183e+04
  4.434121e+01    1.132548e+04
  4.436410e+01    1.165260e+04
  4.438698e+01    1.205277e+04
  4.440987e+01    1.259338e+04
  4.443275e+01    1.337455e+04
  4.445564e+01    1.460261e+04
  4.447853e+01    1.658671e+04
  4.450141e+01    1.973792e+04
  4.452430e+01    2.441508e+04
  4.454718e+01    3.011093e+04
  4.457007e+01    3.501399e+04
  4.459295e+01    3.720178e+04
  4.461584e+01    3.586759e+04
  4.463872e+01    3.157673e+04
  4.466161e+01    2.591126e+04
  4.468449e+01    2.072725e+04
  4.470738e+01    1.694713e+04
  4.473026e+01    1.452014e+04
  4.475315e+01    1.298756e+04
  4.477603e+01    1.197579e+04
  4.479892e+01    1.130485e+04
  4.482181e+01    1.082172e+04
  4.484469e+01    1.046245e+04
  4.486758e+01    1.017724e+04
  4.489046e+01    9.952172e+03
  4.491335e+01    9.767180e+03
  4.493623e+01    9.629378e+03
  4.495912e+01    9.495313e+03
  4.498200e+01    9.372304e+03
  4.500489e+01    9.258282e+03
  4.502777e+01    9.169378e+03
  4.505066e+01    9.084241e+03
  4.507354e+01    9.005983e+03
  4.509643e+01    8.946924e+03
  4.511932e+01    8.887054e+03
  4.514220e+01    8.832108e+03
  4.516509e+01    8.777584e+03
  4.518797e+01    8.743921e+03
  4.521086e+01    8.713352e+03
  4.523374e+01    8.679000e+03
  4.525663e+01    8.650616e+03
  4.527951e+01    8.625302e+03
  4.530240e+01    8.623246e+03
  4.532528e+01    8.628464e+03
  4.534817e+01    8.638940e+03
  4.537105e+01    8.654401e+03
  4.539394e+01    8.678391e+03
  4.541683e+01    8.735478e+03
  4.543971e+01    8.822173e+03
  4.546260e+01    8.957995e+03
  4.548548e+01    9.161715e+03
  4.550837e+01    9.504881e+03
  4.553125e+01    1.007556e+04
  4.555414e+01    1.099998e+04
  4.557702e+01    1.233834e+04
  4.559991e+01    1.399357e+04
  4.562279e+01    1.541193e+04
  4.564568e+01    1.606593e+04
  4.566856e+01    1.568711e+04
  4.569145e+01    1.448325e+04
  4.571433e+01    1.289195e+04
  4.573722e+01    1.141426e+04
  4.576011e+01    1.032653e+04
  4.578299e+01    9.660979e+03
  4.580588e+01    9.241330e+03
  4.582876e+01    8.958644e+03
  4.585165e+01    8.788898e+03
  4.587453e+01    8.671416e+03
  4.589742e+01    8.599258e+03
  4.592030e+01    8.523923e+03
  4.594319e+01    8.484772e+03
  4.596607e+01    8.455743e+03
  4.598896e+01    8.422921e+03
  4.601184e+01    8.397782e+03
  4.603473e+01    8.367248e+03
  4.605762e+01    8.367093e+03
  4.608050e+01    8.340610e+03
  4.610339e+01    8.315509e+03
  4.612627e+01    8.320490e+03
  4.614916e+01    8.307746e+03
  4.617204e+01    8.301174e+03
  4.619493e+01    8.288617e+03
  4.621781e+01    8.276302e+03
  4.624070e+01    8.273324e+03
  4.626358e+01    8.286700e+03
  4.628647e+01    8.273409e+03
  4.630935e+01    8.253427e+03
  4.633224e+01    8.263662e+03
  4.635513e+01    8.257411e+03
  4.637801e+01    8.256878e+03
  4.640090e+01    8.266220e+03
  4.642378e+01    8.262050e+03
  4.644667e+01    8.275167e+03
  4.646955e+01    8.292870e+03
  4.649244e+01    8.345159e+03
  4.651532e+01    8.400355e+03
  4.653821e+01    8.493663e+03
  4.656109e+01    8.651045e+03
  4.658398e+01    8.914713e+03
  4.660686e+01    9.311147e+03
  4.662975e+01    9.807279e+03
  4.665263e+01    1.026203e+04
  4.667552e+01    1.049710e+04
  4.669841e+01    1.041948e+04
  4.672129e+01    1.008642e+04
  4.674418e+01    9.625805e+03
  4.676706e+01    9.180810e+03
  4.678995e+01    8.878299e+03
  4.681283e+01    8.683240e+03
  4.683572e+01    8.572604e+03
  4.685860e+01    8.483125e+03
  4.688149e+01    8.444952e+03
  4.690437e+01    8.432097e+03
  4.692726e+01    8.429916e+03
  4.695014e+01    8.425106e+03
  4.697303e+01    8.420002e+03
  4.699592e+01    8.442627e+03
  4.701880e+01    8.452030e+03
  4.704169e+01    8.470938e+03
  4.706457e+01    8.482691e+03
  4.708746e+01    8.484345e+03
  4.711034e+01    8.475145e+03
  4.713323e+01    8.492309e+03
  4.715611e+01    8.446004e+03
  4.717900e+01    8.421604e+03
  4.720188e+01    8.419800e+03
  4.722477e+01    8.379172e+03
  4.724765e+01    8.370119e+03
  4.727054e+01    8.356979e+03
  4.729343e+01    8.362619e+03
  4.731631e+01    8.362281e+03
  4.733920e+01    8.351344e+03
  4.736208e+01    8.390646e+03
  4.738497e+01    8.427552e+03
  4.740785e+01    8.464462e+03
  4.743074e+01    8.500746e+03
  4.745362e+01    8.522595e+03
  4.747651e+01    8.611449e+03
  4.749939e+01    8.697569e+03
  4.752228e+01    8.793332e+03
  4.754516e+01    8.921826e+03
  4.756805e+01    9.012060e+03
  4.759094e+01    9.318253e+03
  4.761382e+01    9.683149e+03
  4.763671e+01    1.005174e+04
  4.765959e+01    1.035760e+04
  4.768248e+01    1.054650e+04
  4.770536e+01    1.047624e+04
  4.772825e+01    1.011297e+04
  4.775113e+01    9.875324e+03
  4.777402e+01    9.390779e+03
  4.779690e+01    9.139290e+03
  4.781979e+01    8.709181e+03
  4.784267e+01    8.306524e+03
  4.786556e+01    7.090749e+03
  4.788844e+01    3.447760e+03