File: Output/ROCK_XRD/WAM39B_integrated/rampe1/wam39b_rampe_1_xrd_000027_integrated.dat
# == pyFAI calibration ==
# Distance Sample to Detector: 0.261615 m
# PONI: 2.023e-01, 2.348e-01 m
# Rotations: -0.026380 0.002005 0.000000 rad
#
# == Fit2d calibration ==
# Distance Sample-beamCenter: 261.707 mm
# Center: x=6119.331, y=5134.776 pix
# Tilt: 1.516 deg  TiltPlanRot: 4.347 deg
#
# Detector Rayonix SX165	 PixelSize= 3.950e-05, 3.950e-05 m
#    Detector has a mask: True
#    Detector has a dark current: False
#    detector has a flat field: False
#
# Wavelength: 1.12713e-10 m
# Mask applied: from detector
# Dark current applied: False
# Flat field applied: False
# Polarization factor: None
# Normalization factor: 1.0
# --> ROCK\\WAM39B_integrated\wam39b_rampe_1_xrd_000027_integrated.dat
#       2th_deg             I
  2.502596e+01    4.562604e+03
  2.504885e+01    1.196610e+04
  2.507173e+01    1.610428e+04
  2.509462e+01    1.710399e+04
  2.511750e+01    1.871482e+04
  2.514039e+01    1.939125e+04
  2.516327e+01    1.930473e+04
  2.518616e+01    1.912946e+04
  2.520905e+01    1.901218e+04
  2.523193e+01    1.880170e+04
  2.525482e+01    1.886718e+04
  2.527770e+01    1.921644e+04
  2.530059e+01    1.913357e+04
  2.532347e+01    1.893334e+04
  2.534636e+01    1.876225e+04
  2.536924e+01    1.864916e+04
  2.539213e+01    1.861260e+04
  2.541501e+01    1.859402e+04
  2.543790e+01    1.859102e+04
  2.546078e+01    1.862680e+04
  2.548367e+01    1.857828e+04
  2.550656e+01    1.840846e+04
  2.552944e+01    1.830827e+04
  2.555233e+01    1.854920e+04
  2.557521e+01    1.869363e+04
  2.559810e+01    1.864663e+04
  2.562098e+01    1.863432e+04
  2.564387e+01    1.867205e+04
  2.566675e+01    1.874234e+04
  2.568964e+01    1.875934e+04
  2.571252e+01    1.878543e+04
  2.573541e+01    1.882358e+04
  2.575829e+01    1.871970e+04
  2.578118e+01    1.849530e+04
  2.580407e+01    1.833303e+04
  2.582695e+01    1.822689e+04
  2.584984e+01    1.815304e+04
  2.587272e+01    1.811858e+04
  2.589561e+01    1.815223e+04
  2.591849e+01    1.812779e+04
  2.594138e+01    1.815925e+04
  2.596426e+01    1.827126e+04
  2.598715e+01    1.829616e+04
  2.601003e+01    1.844843e+04
  2.603292e+01    1.858692e+04
  2.605580e+01    1.874748e+04
  2.607869e+01    1.901098e+04
  2.610157e+01    1.934405e+04
  2.612446e+01    1.981888e+04
  2.614735e+01    2.047123e+04
  2.617023e+01    2.138957e+04
  2.619312e+01    2.278989e+04
  2.621600e+01    2.489561e+04
  2.623889e+01    2.785255e+04
  2.626177e+01    3.208579e+04
  2.628466e+01    3.754257e+04
  2.630754e+01    4.376300e+04
  2.633043e+01    4.952155e+04
  2.635331e+01    5.303572e+04
  2.637620e+01    5.251071e+04
  2.639908e+01    4.757747e+04
  2.642197e+01    4.026338e+04
  2.644486e+01    3.328821e+04
  2.646774e+01    2.823093e+04
  2.649063e+01    2.474947e+04
  2.651351e+01    2.249796e+04
  2.653640e+01    2.096017e+04
  2.655928e+01    1.988371e+04
  2.658217e+01    1.910910e+04
  2.660505e+01    1.854247e+04
  2.662794e+01    1.811724e+04
  2.665082e+01    1.776553e+04
  2.667371e+01    1.748450e+04
  2.669659e+01    1.726801e+04
  2.671948e+01    1.709886e+04
  2.674237e+01    1.695279e+04
  2.676525e+01    1.681669e+04
  2.678814e+01    1.669731e+04
  2.681102e+01    1.660199e+04
  2.683391e+01    1.650077e+04
  2.685679e+01    1.642403e+04
  2.687968e+01    1.637592e+04
  2.690256e+01    1.628236e+04
  2.692545e+01    1.622817e+04
  2.694833e+01    1.616017e+04
  2.697122e+01    1.609024e+04
  2.699410e+01    1.603324e+04
  2.701699e+01    1.601527e+04
  2.703988e+01    1.593589e+04
  2.706276e+01    1.588201e+04
  2.708565e+01    1.584845e+04
  2.710853e+01    1.579432e+04
  2.713142e+01    1.575675e+04
  2.715430e+01    1.571628e+04
  2.717719e+01    1.566403e+04
  2.720007e+01    1.559658e+04
  2.722296e+01    1.555312e+04
  2.724584e+01    1.550212e+04
  2.726873e+01    1.548320e+04
  2.729161e+01    1.543363e+04
  2.731450e+01    1.539275e+04
  2.733738e+01    1.534439e+04
  2.736027e+01    1.530051e+04
  2.738316e+01    1.525821e+04
  2.740604e+01    1.521377e+04
  2.742893e+01    1.519540e+04
  2.745181e+01    1.518082e+04
  2.747470e+01    1.513513e+04
  2.749758e+01    1.510130e+04
  2.752047e+01    1.507295e+04
  2.754335e+01    1.505021e+04
  2.756624e+01    1.503711e+04
  2.758912e+01    1.501417e+04
  2.761201e+01    1.498409e+04
  2.763489e+01    1.496903e+04
  2.765778e+01    1.497560e+04
  2.768067e+01    1.498952e+04
  2.770355e+01    1.502135e+04
  2.772644e+01    1.503861e+04
  2.774932e+01    1.509161e+04
  2.777221e+01    1.521859e+04
  2.779509e+01    1.540427e+04
  2.781798e+01    1.569890e+04
  2.784086e+01    1.611065e+04
  2.786375e+01    1.671736e+04
  2.788663e+01    1.754790e+04
  2.790952e+01    1.858640e+04
  2.793240e+01    1.956755e+04
  2.795529e+01    1.999962e+04
  2.797818e+01    1.962946e+04
  2.800106e+01    1.862035e+04
  2.802395e+01    1.742093e+04
  2.804683e+01    1.638637e+04
  2.806972e+01    1.563142e+04
  2.809260e+01    1.512968e+04
  2.811549e+01    1.478830e+04
  2.813837e+01    1.455036e+04
  2.816126e+01    1.437917e+04
  2.818414e+01    1.424872e+04
  2.820703e+01    1.414404e+04
  2.822991e+01    1.405793e+04
  2.825280e+01    1.398474e+04
  2.827568e+01    1.392739e+04
  2.829857e+01    1.386920e+04
  2.832146e+01    1.381596e+04
  2.834434e+01    1.375611e+04
  2.836723e+01    1.370405e+04
  2.839011e+01    1.365625e+04
  2.841300e+01    1.360173e+04
  2.843588e+01    1.355939e+04
  2.845877e+01    1.350168e+04
  2.848165e+01    1.345269e+04
  2.850454e+01    1.342505e+04
  2.852742e+01    1.339661e+04
  2.855031e+01    1.337482e+04
  2.857319e+01    1.333071e+04
  2.859608e+01    1.328479e+04
  2.861897e+01    1.323240e+04
  2.864185e+01    1.318996e+04
  2.866474e+01    1.315648e+04
  2.868762e+01    1.308848e+04
  2.871051e+01    1.303357e+04
  2.873339e+01    1.299067e+04
  2.875628e+01    1.294580e+04
  2.877916e+01    1.290585e+04
  2.880205e+01    1.286030e+04
  2.882493e+01    1.281892e+04
  2.884782e+01    1.278440e+04
  2.887070e+01    1.274612e+04
  2.889359e+01    1.269772e+04
  2.891648e+01    1.265130e+04
  2.893936e+01    1.260313e+04
  2.896225e+01    1.255856e+04
  2.898513e+01    1.251549e+04
  2.900802e+01    1.247658e+04
  2.903090e+01    1.242776e+04
  2.905379e+01    1.237680e+04
  2.907667e+01    1.234488e+04
  2.909956e+01    1.230452e+04
  2.912244e+01    1.226272e+04
  2.914533e+01    1.222461e+04
  2.916821e+01    1.219285e+04
  2.919110e+01    1.215899e+04
  2.921398e+01    1.212383e+04
  2.923687e+01    1.210056e+04
  2.925976e+01    1.207516e+04
  2.928264e+01    1.205159e+04
  2.930553e+01    1.204666e+04
  2.932841e+01    1.204512e+04
  2.935130e+01    1.206812e+04
  2.937418e+01    1.213252e+04
  2.939707e+01    1.226517e+04
  2.941995e+01    1.246490e+04
  2.944284e+01    1.276062e+04
  2.946572e+01    1.310832e+04
  2.948861e+01    1.333852e+04
  2.951149e+01    1.335421e+04
  2.953438e+01    1.313618e+04
  2.955727e+01    1.274834e+04
  2.958015e+01    1.233869e+04
  2.960304e+01    1.202657e+04
  2.962592e+01    1.181107e+04
  2.964881e+01    1.166319e+04
  2.967169e+01    1.155017e+04
  2.969458e+01    1.148108e+04
  2.971746e+01    1.142216e+04
  2.974035e+01    1.137590e+04
  2.976323e+01    1.132970e+04
  2.978612e+01    1.129661e+04
  2.980900e+01    1.128291e+04
  2.983189e+01    1.126854e+04
  2.985478e+01    1.124666e+04
  2.987766e+01    1.121662e+04
  2.990055e+01    1.120535e+04
  2.992343e+01    1.120738e+04
  2.994632e+01    1.119942e+04
  2.996920e+01    1.119336e+04
  2.999209e+01    1.120160e+04
  3.001497e+01    1.120884e+04
  3.003786e+01    1.122231e+04
  3.006074e+01    1.124109e+04
  3.008363e+01    1.126554e+04
  3.010651e+01    1.130998e+04
  3.012940e+01    1.136534e+04
  3.015228e+01    1.140455e+04
  3.017517e+01    1.146379e+04
  3.019806e+01    1.155968e+04
  3.022094e+01    1.165565e+04
  3.024383e+01    1.178754e+04
  3.026671e+01    1.197500e+04
  3.028960e+01    1.222877e+04
  3.031248e+01    1.256966e+04
  3.033537e+01    1.306342e+04
  3.035825e+01    1.376867e+04
  3.038114e+01    1.482526e+04
  3.040402e+01    1.646160e+04
  3.042691e+01    1.900495e+04
  3.044979e+01    2.295740e+04
  3.047268e+01    2.901394e+04
  3.049557e+01    3.759670e+04
  3.051845e+01    4.704785e+04
  3.054134e+01    5.360738e+04
  3.056422e+01    5.405598e+04
  3.058711e+01    4.789970e+04
  3.060999e+01    3.816498e+04
  3.063288e+01    2.930453e+04
  3.065576e+01    2.322112e+04
  3.067865e+01    1.939213e+04
  3.070153e+01    1.700044e+04
  3.072442e+01    1.547523e+04
  3.074730e+01    1.449624e+04
  3.077019e+01    1.389221e+04
  3.079308e+01    1.362328e+04
  3.081596e+01    1.365103e+04
  3.083885e+01    1.405674e+04
  3.086173e+01    1.499559e+04
  3.088462e+01    1.671276e+04
  3.090750e+01    1.937611e+04
  3.093039e+01    2.279759e+04
  3.095327e+01    2.602156e+04
  3.097616e+01    2.765739e+04
  3.099904e+01    2.683518e+04
  3.102193e+01    2.391554e+04
  3.104481e+01    2.017407e+04
  3.106770e+01    1.688135e+04
  3.109059e+01    1.452985e+04
  3.111347e+01    1.304154e+04
  3.113636e+01    1.212254e+04
  3.115924e+01    1.154154e+04
  3.118213e+01    1.116414e+04
  3.120501e+01    1.090850e+04
  3.122790e+01    1.071805e+04
  3.125078e+01    1.056665e+04
  3.127367e+01    1.044647e+04
  3.129655e+01    1.035428e+04
  3.131944e+01    1.028110e+04
  3.134232e+01    1.021675e+04
  3.136521e+01    1.016099e+04
  3.138809e+01    1.010942e+04
  3.141098e+01    1.006380e+04
  3.143387e+01    1.002339e+04
  3.145675e+01    9.995655e+03
  3.147964e+01    9.956214e+03
  3.150252e+01    9.918337e+03
  3.152541e+01    9.890008e+03
  3.154829e+01    9.854368e+03
  3.157118e+01    9.827221e+03
  3.159406e+01    9.802023e+03
  3.161695e+01    9.772956e+03
  3.163983e+01    9.747954e+03
  3.166272e+01    9.731891e+03
  3.168560e+01    9.709988e+03
  3.170849e+01    9.691421e+03
  3.173138e+01    9.669521e+03
  3.175426e+01    9.642127e+03
  3.177715e+01    9.614641e+03
  3.180003e+01    9.599588e+03
  3.182292e+01    9.583385e+03
  3.184580e+01    9.568394e+03
  3.186869e+01    9.549775e+03
  3.189157e+01    9.525030e+03
  3.191446e+01    9.515077e+03
  3.193734e+01    9.509801e+03
  3.196023e+01    9.495648e+03
  3.198311e+01    9.475642e+03
  3.200600e+01    9.450261e+03
  3.202889e+01    9.433150e+03
  3.205177e+01    9.428236e+03
  3.207466e+01    9.415116e+03
  3.209754e+01    9.393146e+03
  3.212043e+01    9.390587e+03
  3.214331e+01    9.386759e+03
  3.216620e+01    9.382304e+03
  3.218908e+01    9.381752e+03
  3.221197e+01    9.394701e+03
  3.223485e+01    9.426222e+03
  3.225774e+01    9.488271e+03
  3.228062e+01    9.587557e+03
  3.230351e+01    9.747307e+03
  3.232639e+01    1.000613e+04
  3.234928e+01    1.033096e+04
  3.237217e+01    1.061174e+04
  3.239505e+01    1.070947e+04
  3.241794e+01    1.058687e+04
  3.244082e+01    1.029445e+04
  3.246371e+01    9.952038e+03
  3.248659e+01    9.663726e+03
  3.250948e+01    9.458559e+03
  3.253236e+01    9.323966e+03
  3.255525e+01    9.232224e+03
  3.257813e+01    9.170053e+03
  3.260102e+01    9.132460e+03
  3.262390e+01    9.100053e+03
  3.264679e+01    9.075734e+03
  3.266968e+01    9.054305e+03
  3.269256e+01    9.029897e+03
  3.271545e+01    9.011381e+03
  3.273833e+01    8.990642e+03
  3.276122e+01    8.967428e+03
  3.278410e+01    8.958379e+03
  3.280699e+01    8.950146e+03
  3.282987e+01    8.933444e+03
  3.285276e+01    8.915758e+03
  3.287564e+01    8.900459e+03
  3.289853e+01    8.892589e+03
  3.292141e+01    8.876063e+03
  3.294430e+01    8.862729e+03
  3.296719e+01    8.857701e+03
  3.299007e+01    8.843930e+03
  3.301296e+01    8.829315e+03
  3.303584e+01    8.817127e+03
  3.305873e+01    8.803854e+03
  3.308161e+01    8.794687e+03
  3.310450e+01    8.786497e+03
  3.312738e+01    8.777645e+03
  3.315027e+01    8.775143e+03
  3.317315e+01    8.769767e+03
  3.319604e+01    8.759970e+03
  3.321892e+01    8.760333e+03
  3.324181e+01    8.753407e+03
  3.326469e+01    8.743344e+03
  3.328758e+01    8.747744e+03
  3.331047e+01    8.759178e+03
  3.333335e+01    8.751858e+03
  3.335624e+01    8.747059e+03
  3.337912e+01    8.750364e+03
  3.340201e+01    8.761447e+03
  3.342489e+01    8.775033e+03
  3.344778e+01    8.798015e+03
  3.347066e+01    8.831219e+03
  3.349355e+01    8.885354e+03
  3.351643e+01    8.954463e+03
  3.353932e+01    9.066806e+03
  3.356220e+01    9.237279e+03
  3.358509e+01    9.497069e+03
  3.360798e+01    9.923653e+03
  3.363086e+01    1.063346e+04
  3.365375e+01    1.181176e+04
  3.367663e+01    1.363109e+04
  3.369952e+01    1.611151e+04
  3.372240e+01    1.872918e+04
  3.374529e+01    2.046527e+04
  3.376817e+01    2.052457e+04
  3.379106e+01    1.889329e+04
  3.381394e+01    1.629302e+04
  3.383683e+01    1.371264e+04
  3.385971e+01    1.177820e+04
  3.388260e+01    1.054959e+04
  3.390549e+01    9.808942e+03
  3.392837e+01    9.351208e+03
  3.395126e+01    9.054648e+03
  3.397414e+01    8.871590e+03
  3.399703e+01    8.735814e+03
  3.401991e+01    8.639894e+03
  3.404280e+01    8.567689e+03
  3.406568e+01    8.503276e+03
  3.408857e+01    8.452161e+03
  3.411145e+01    8.412052e+03
  3.413434e+01    8.375754e+03
  3.415722e+01    8.357257e+03
  3.418011e+01    8.340384e+03
  3.420300e+01    8.304914e+03
  3.422588e+01    8.275972e+03
  3.424877e+01    8.260924e+03
  3.427165e+01    8.241498e+03
  3.429454e+01    8.215800e+03
  3.431742e+01    8.196854e+03
  3.434031e+01    8.186883e+03
  3.436319e+01    8.175244e+03
  3.438608e+01    8.155776e+03
  3.440896e+01    8.146784e+03
  3.443185e+01    8.132451e+03
  3.445473e+01    8.108551e+03
  3.447762e+01    8.093293e+03
  3.450050e+01    8.086774e+03
  3.452339e+01    8.076997e+03
  3.454628e+01    8.064364e+03
  3.456916e+01    8.051507e+03
  3.459205e+01    8.044110e+03
  3.461493e+01    8.034584e+03
  3.463782e+01    8.028948e+03
  3.466070e+01    8.031726e+03
  3.468359e+01    8.041550e+03
  3.470647e+01    8.072845e+03
  3.472936e+01    8.100901e+03
  3.475224e+01    8.123092e+03
  3.477513e+01    8.142450e+03
  3.479801e+01    8.143452e+03
  3.482090e+01    8.117582e+03
  3.484379e+01    8.060161e+03
  3.486667e+01    8.001666e+03
  3.488956e+01    7.961692e+03
  3.491244e+01    7.924507e+03
  3.493533e+01    7.897265e+03
  3.495821e+01    7.867630e+03
  3.498110e+01    7.859428e+03
  3.500398e+01    7.848645e+03
  3.502687e+01    7.835898e+03
  3.504975e+01    7.830744e+03
  3.507264e+01    7.819591e+03
  3.509552e+01    7.798440e+03
  3.511841e+01    7.795246e+03
  3.514130e+01    7.787269e+03
  3.516418e+01    7.778791e+03
  3.518707e+01    7.757996e+03
  3.520995e+01    7.748284e+03
  3.523284e+01    7.746173e+03
  3.525572e+01    7.735047e+03
  3.527861e+01    7.725623e+03
  3.530149e+01    7.724043e+03
  3.532438e+01    7.713309e+03
  3.534726e+01    7.701191e+03
  3.537015e+01    7.692613e+03
  3.539303e+01    7.680093e+03
  3.541592e+01    7.676522e+03
  3.543880e+01    7.662860e+03
  3.546169e+01    7.652021e+03
  3.548458e+01    7.642003e+03
  3.550746e+01    7.636969e+03
  3.553035e+01    7.631137e+03
  3.555323e+01    7.620096e+03
  3.557612e+01    7.605034e+03
  3.559900e+01    7.599945e+03
  3.562189e+01    7.595332e+03
  3.564477e+01    7.589496e+03
  3.566766e+01    7.587874e+03
  3.569054e+01    7.581913e+03
  3.571343e+01    7.581942e+03
  3.573631e+01    7.579633e+03
  3.575920e+01    7.576852e+03
  3.578209e+01    7.577451e+03
  3.580497e+01    7.579356e+03
  3.582786e+01    7.578061e+03
  3.585074e+01    7.578283e+03
  3.587363e+01    7.577823e+03
  3.589651e+01    7.575069e+03
  3.591940e+01    7.578856e+03
  3.594228e+01    7.587541e+03
  3.596517e+01    7.599974e+03
  3.598805e+01    7.612278e+03
  3.601094e+01    7.624938e+03
  3.603382e+01    7.635777e+03
  3.605671e+01    7.657736e+03
  3.607960e+01    7.689473e+03
  3.610248e+01    7.722643e+03
  3.612537e+01    7.764075e+03
  3.614825e+01    7.833585e+03
  3.617114e+01    7.948111e+03
  3.619402e+01    8.127608e+03
  3.621691e+01    8.419245e+03
  3.623979e+01    8.872276e+03
  3.626268e+01    9.594904e+03
  3.628556e+01    1.057585e+04
  3.630845e+01    1.160334e+04
  3.633133e+01    1.227695e+04
  3.635422e+01    1.228799e+04
  3.637710e+01    1.164773e+04
  3.639999e+01    1.064500e+04
  3.642288e+01    9.659294e+03
  3.644576e+01    8.919181e+03
  3.646865e+01    8.456829e+03
  3.649153e+01    8.182638e+03
  3.651442e+01    8.006794e+03
  3.653730e+01    7.915582e+03
  3.656019e+01    7.860258e+03
  3.658307e+01    7.814693e+03
  3.660596e+01    7.791388e+03
  3.662884e+01    7.777345e+03
  3.665173e+01    7.760009e+03
  3.667461e+01    7.751367e+03
  3.669750e+01    7.749474e+03
  3.672039e+01    7.751295e+03
  3.674327e+01    7.757716e+03
  3.676616e+01    7.758171e+03
  3.678904e+01    7.768288e+03
  3.681193e+01    7.778842e+03
  3.683481e+01    7.789583e+03
  3.685770e+01    7.792402e+03
  3.688058e+01    7.810457e+03
  3.690347e+01    7.828309e+03
  3.692635e+01    7.850660e+03
  3.694924e+01    7.864380e+03
  3.697212e+01    7.886911e+03
  3.699501e+01    7.917171e+03
  3.701790e+01    7.943690e+03
  3.704078e+01    7.979210e+03
  3.706367e+01    8.016132e+03
  3.708655e+01    8.056726e+03
  3.710944e+01    8.120217e+03
  3.713232e+01    8.180076e+03
  3.715521e+01    8.251499e+03
  3.717809e+01    8.328114e+03
  3.720098e+01    8.418052e+03
  3.722386e+01    8.526217e+03
  3.724675e+01    8.654292e+03
  3.726963e+01    8.826123e+03
  3.729252e+01    9.039643e+03
  3.731541e+01    9.315830e+03
  3.733829e+01    9.713773e+03
  3.736118e+01    1.028740e+04
  3.738406e+01    1.112085e+04
  3.740695e+01    1.241528e+04
  3.742983e+01    1.454572e+04
  3.745272e+01    1.811954e+04
  3.747560e+01    2.404562e+04
  3.749849e+01    3.329334e+04
  3.752137e+01    4.561864e+04
  3.754426e+01    5.792002e+04
  3.756714e+01    6.530531e+04
  3.759003e+01    6.453179e+04
  3.761291e+01    5.607934e+04
  3.763580e+01    4.362061e+04
  3.765869e+01    3.170180e+04
  3.768157e+01    2.293827e+04
  3.770446e+01    1.742717e+04
  3.772734e+01    1.418164e+04
  3.775023e+01    1.225346e+04
  3.777311e+01    1.105979e+04
  3.779600e+01    1.029031e+04
  3.781888e+01    9.746986e+03
  3.784177e+01    9.360471e+03
  3.786465e+01    9.080702e+03
  3.788754e+01    8.870054e+03
  3.791042e+01    8.702644e+03
  3.793331e+01    8.576406e+03
  3.795620e+01    8.463320e+03
  3.797908e+01    8.360262e+03
  3.800197e+01    8.276469e+03
  3.802485e+01    8.207077e+03
  3.804774e+01    8.151286e+03
  3.807062e+01    8.112877e+03
  3.809351e+01    8.073211e+03
  3.811639e+01    8.040412e+03
  3.813928e+01    8.010751e+03
  3.816216e+01    7.983500e+03
  3.818505e+01    7.964483e+03
  3.820793e+01    7.942922e+03
  3.823082e+01    7.906110e+03
  3.825371e+01    7.893790e+03
  3.827659e+01    7.885912e+03
  3.829948e+01    7.880115e+03
  3.832236e+01    7.870508e+03
  3.834525e+01    7.848199e+03
  3.836813e+01    7.842159e+03
  3.839102e+01    7.844250e+03
  3.841390e+01    7.842398e+03
  3.843679e+01    7.833443e+03
  3.845967e+01    7.847340e+03
  3.848256e+01    7.858848e+03
  3.850544e+01    7.876827e+03
  3.852833e+01    7.905221e+03
  3.855121e+01    7.923908e+03
  3.857410e+01    7.949235e+03
  3.859699e+01    7.981165e+03
  3.861987e+01    8.025460e+03
  3.864276e+01    8.116846e+03
  3.866564e+01    8.288882e+03
  3.868853e+01    8.572572e+03
  3.871141e+01    8.983287e+03
  3.873430e+01    9.459498e+03
  3.875718e+01    9.825812e+03
  3.878007e+01    9.928226e+03
  3.880295e+01    9.708349e+03
  3.882584e+01    9.280114e+03
  3.884872e+01    8.804124e+03
  3.887161e+01    8.423016e+03
  3.889450e+01    8.161661e+03
  3.891738e+01    8.001412e+03
  3.894027e+01    7.911643e+03
  3.896315e+01    7.845240e+03
  3.898604e+01    7.803615e+03
  3.900892e+01    7.781314e+03
  3.903181e+01    7.762144e+03
  3.905469e+01    7.745150e+03
  3.907758e+01    7.729042e+03
  3.910046e+01    7.721360e+03
  3.912335e+01    7.718999e+03
  3.914623e+01    7.709735e+03
  3.916912e+01    7.701261e+03
  3.919201e+01    7.703434e+03
  3.921489e+01    7.685743e+03
  3.923778e+01    7.678828e+03
  3.926066e+01    7.671818e+03
  3.928355e+01    7.656882e+03
  3.930643e+01    7.647442e+03
  3.932932e+01    7.636489e+03
  3.935220e+01    7.631840e+03
  3.937509e+01    7.632256e+03
  3.939797e+01    7.623320e+03
  3.942086e+01    7.616070e+03
  3.944374e+01    7.601317e+03
  3.946663e+01    7.592950e+03
  3.948951e+01    7.585396e+03
  3.951240e+01    7.582340e+03
  3.953529e+01    7.572010e+03
  3.955817e+01    7.574336e+03
  3.958106e+01    7.573039e+03
  3.960394e+01    7.562921e+03
  3.962683e+01    7.542923e+03
  3.964971e+01    7.534537e+03
  3.967260e+01    7.532919e+03
  3.969548e+01    7.526876e+03
  3.971837e+01    7.526308e+03
  3.974125e+01    7.525677e+03
  3.976414e+01    7.529982e+03
  3.978702e+01    7.543115e+03
  3.980991e+01    7.565955e+03
  3.983280e+01    7.607174e+03
  3.985568e+01    7.683294e+03
  3.987857e+01    7.787578e+03
  3.990145e+01    7.921115e+03
  3.992434e+01    8.003539e+03
  3.994722e+01    8.023049e+03
  3.997011e+01    7.966908e+03
  3.999299e+01    7.842940e+03
  4.001588e+01    7.710124e+03
  4.003876e+01    7.610024e+03
  4.006165e+01    7.550462e+03
  4.008453e+01    7.514704e+03
  4.010742e+01    7.488229e+03
  4.013031e+01    7.468583e+03
  4.015319e+01    7.451560e+03
  4.017608e+01    7.435969e+03
  4.019896e+01    7.428907e+03
  4.022185e+01    7.425506e+03
  4.024473e+01    7.424241e+03
  4.026762e+01    7.424296e+03
  4.029050e+01    7.418588e+03
  4.031339e+01    7.414814e+03
  4.033627e+01    7.414634e+03
  4.035916e+01    7.409030e+03
  4.038204e+01    7.395387e+03
  4.040493e+01    7.393500e+03
  4.042782e+01    7.387528e+03
  4.045070e+01    7.386127e+03
  4.047359e+01    7.381003e+03
  4.049647e+01    7.372476e+03
  4.051936e+01    7.371351e+03
  4.054224e+01    7.369725e+03
  4.056513e+01    7.368289e+03
  4.058801e+01    7.363401e+03
  4.061090e+01    7.360797e+03
  4.063378e+01    7.367795e+03
  4.065667e+01    7.375627e+03
  4.067955e+01    7.376657e+03
  4.070244e+01    7.378074e+03
  4.072532e+01    7.392825e+03
  4.074821e+01    7.406208e+03
  4.077110e+01    7.420206e+03
  4.079398e+01    7.441747e+03
  4.081687e+01    7.459209e+03
  4.083975e+01    7.504318e+03
  4.086264e+01    7.560645e+03
  4.088552e+01    7.633938e+03
  4.090841e+01    7.748125e+03
  4.093129e+01    7.938991e+03
  4.095418e+01    8.277000e+03
  4.097706e+01    8.833340e+03
  4.099995e+01    9.710821e+03
  4.102283e+01    1.095235e+04
  4.104572e+01    1.229594e+04
  4.106861e+01    1.323316e+04
  4.109149e+01    1.335800e+04
  4.111438e+01    1.267652e+04
  4.113726e+01    1.144834e+04
  4.116015e+01    1.013985e+04
  4.118303e+01    9.108399e+03
  4.120592e+01    8.438269e+03
  4.122880e+01    8.058260e+03
  4.125169e+01    7.840424e+03
  4.127457e+01    7.715179e+03
  4.129746e+01    7.635594e+03
  4.132034e+01    7.566452e+03
  4.134323e+01    7.498423e+03
  4.136612e+01    7.448646e+03
  4.138900e+01    7.405825e+03
  4.141189e+01    7.370107e+03
  4.143477e+01    7.343367e+03
  4.145766e+01    7.323899e+03
  4.148054e+01    7.308881e+03
  4.150343e+01    7.293789e+03
  4.152631e+01    7.288514e+03
  4.154920e+01    7.288050e+03
  4.157208e+01    7.277323e+03
  4.159497e+01    7.273674e+03
  4.161785e+01    7.273477e+03
  4.164074e+01    7.268468e+03
  4.166362e+01    7.263007e+03
  4.168651e+01    7.265537e+03
  4.170940e+01    7.269099e+03
  4.173228e+01    7.260529e+03
  4.175517e+01    7.252013e+03
  4.177805e+01    7.244610e+03
  4.180094e+01    7.242465e+03
  4.182382e+01    7.242691e+03
  4.184671e+01    7.236727e+03
  4.186959e+01    7.237254e+03
  4.189248e+01    7.236343e+03
  4.191536e+01    7.232821e+03
  4.193825e+01    7.233641e+03
  4.196113e+01    7.243707e+03
  4.198402e+01    7.260832e+03
  4.200691e+01    7.285842e+03
  4.202979e+01    7.317618e+03
  4.205268e+01    7.359583e+03
  4.207556e+01    7.436140e+03
  4.209845e+01    7.573464e+03
  4.212133e+01    7.790310e+03
  4.214422e+01    8.069998e+03
  4.216710e+01    8.346144e+03
  4.218999e+01    8.493431e+03
  4.221287e+01    8.454201e+03
  4.223576e+01    8.249183e+03
  4.225864e+01    7.972559e+03
  4.228153e+01    7.702208e+03
  4.230442e+01    7.513132e+03
  4.232730e+01    7.396725e+03
  4.235019e+01    7.326464e+03
  4.237307e+01    7.285522e+03
  4.239596e+01    7.249995e+03
  4.241884e+01    7.234456e+03
  4.244173e+01    7.222920e+03
  4.246461e+01    7.216333e+03
  4.248750e+01    7.209017e+03
  4.251038e+01    7.203868e+03
  4.253327e+01    7.197950e+03
  4.255615e+01    7.193896e+03
  4.257904e+01    7.191079e+03
  4.260192e+01    7.195771e+03
  4.262481e+01    7.194083e+03
  4.264770e+01    7.189278e+03
  4.267058e+01    7.194692e+03
  4.269347e+01    7.197758e+03
  4.271635e+01    7.202251e+03
  4.273924e+01    7.206307e+03
  4.276212e+01    7.216813e+03
  4.278501e+01    7.218770e+03
  4.280789e+01    7.225068e+03
  4.283078e+01    7.223401e+03
  4.285366e+01    7.230823e+03
  4.287655e+01    7.235738e+03
  4.289943e+01    7.249322e+03
  4.292232e+01    7.259674e+03
  4.294521e+01    7.280443e+03
  4.296809e+01    7.297023e+03
  4.299098e+01    7.320454e+03
  4.301386e+01    7.348825e+03
  4.303675e+01    7.384065e+03
  4.305963e+01    7.434514e+03
  4.308252e+01    7.496593e+03
  4.310540e+01    7.604063e+03
  4.312829e+01    7.758198e+03
  4.315117e+01    8.009311e+03
  4.317406e+01    8.425348e+03
  4.319694e+01    9.102067e+03
  4.321983e+01    1.008465e+04
  4.324272e+01    1.124500e+04
  4.326560e+01    1.218719e+04
  4.328849e+01    1.251866e+04
  4.331137e+01    1.216335e+04
  4.333426e+01    1.126814e+04
  4.335714e+01    1.018961e+04
  4.338003e+01    9.273595e+03
  4.340291e+01    8.684409e+03
  4.342580e+01    8.368539e+03
  4.344868e+01    8.220914e+03
  4.347157e+01    8.193744e+03
  4.349445e+01    8.251569e+03
  4.351734e+01    8.409427e+03
  4.354022e+01    8.670102e+03
  4.356311e+01    9.121791e+03
  4.358600e+01    9.834701e+03
  4.360888e+01    1.096759e+04
  4.363177e+01    1.278843e+04
  4.365465e+01    1.560149e+04
  4.367754e+01    1.935202e+04
  4.370042e+01    2.291366e+04
  4.372331e+01    2.490747e+04
  4.374619e+01    2.472054e+04
  4.376908e+01    2.213399e+04
  4.379196e+01    1.798142e+04
  4.381485e+01    1.434257e+04
  4.383773e+01    1.197649e+04
  4.386062e+01    1.052363e+04
  4.388351e+01    9.623633e+03
  4.390639e+01    9.025102e+03
  4.392928e+01    8.617587e+03
  4.395216e+01    8.345113e+03
  4.397505e+01    8.164047e+03
  4.399793e+01    8.036884e+03
  4.402082e+01    7.968036e+03
  4.404370e+01    7.942663e+03
  4.406659e+01    7.948230e+03
  4.408947e+01    7.993642e+03
  4.411236e+01    8.108360e+03
  4.413524e+01    8.268033e+03
  4.415813e+01    8.529194e+03
  4.418102e+01    8.971452e+03
  4.420390e+01    9.705553e+03
  4.422679e+01    1.091583e+04
  4.424967e+01    1.293101e+04
  4.427256e+01    1.613673e+04
  4.429544e+01    2.057127e+04
  4.431833e+01    2.524676e+04
  4.434121e+01    2.834108e+04
  4.436410e+01    2.860204e+04
  4.438698e+01    2.605719e+04
  4.440987e+01    2.167355e+04
  4.443275e+01    1.703665e+04
  4.445564e+01    1.346476e+04
  4.447853e+01    1.117817e+04
  4.450141e+01    9.799214e+03
  4.452430e+01    8.971994e+03
  4.454718e+01    8.452444e+03
  4.457007e+01    8.107549e+03
  4.459295e+01    7.886562e+03
  4.461584e+01    7.715080e+03
  4.463872e+01    7.586347e+03
  4.466161e+01    7.489434e+03
  4.468449e+01    7.416657e+03
  4.470738e+01    7.349418e+03
  4.473026e+01    7.300851e+03
  4.475315e+01    7.271089e+03
  4.477603e+01    7.240051e+03
  4.479892e+01    7.213104e+03
  4.482181e+01    7.193195e+03
  4.484469e+01    7.165840e+03
  4.486758e+01    7.147011e+03
  4.489046e+01    7.128811e+03
  4.491335e+01    7.106451e+03
  4.493623e+01    7.117052e+03
  4.495912e+01    7.112380e+03
  4.498200e+01    7.108554e+03
  4.500489e+01    7.097360e+03
  4.502777e+01    7.101122e+03
  4.505066e+01    7.104331e+03
  4.507354e+01    7.108186e+03
  4.509643e+01    7.133895e+03
  4.511932e+01    7.152176e+03
  4.514220e+01    7.176763e+03
  4.516509e+01    7.212823e+03
  4.518797e+01    7.279846e+03
  4.521086e+01    7.372330e+03
  4.523374e+01    7.516467e+03
  4.525663e+01    7.751887e+03
  4.527951e+01    8.142188e+03
  4.530240e+01    8.781693e+03
  4.532528e+01    9.758492e+03
  4.534817e+01    1.105508e+04
  4.537105e+01    1.229354e+04
  4.539394e+01    1.294256e+04
  4.541683e+01    1.279772e+04
  4.543971e+01    1.193754e+04
  4.546260e+01    1.064700e+04
  4.548548e+01    9.414440e+03
  4.550837e+01    8.512902e+03
  4.553125e+01    7.946335e+03
  4.555414e+01    7.598351e+03
  4.557702e+01    7.378349e+03
  4.559991e+01    7.234426e+03
  4.562279e+01    7.138654e+03
  4.564568e+01    7.089421e+03
  4.566856e+01    7.038979e+03
  4.569145e+01    6.999096e+03
  4.571433e+01    6.971062e+03
  4.573722e+01    6.948272e+03
  4.576011e+01    6.928462e+03
  4.578299e+01    6.920423e+03
  4.580588e+01    6.901314e+03
  4.582876e+01    6.877985e+03
  4.585165e+01    6.874421e+03
  4.587453e+01    6.865810e+03
  4.589742e+01    6.858394e+03
  4.592030e+01    6.849760e+03
  4.594319e+01    6.855169e+03
  4.596607e+01    6.846525e+03
  4.598896e+01    6.824950e+03
  4.601184e+01    6.811068e+03
  4.603473e+01    6.791300e+03
  4.605762e+01    6.838740e+03
  4.608050e+01    7.411867e+03
  4.610339e+01    7.548328e+03
  4.612627e+01    6.943714e+03
  4.614916e+01    6.791860e+03
  4.617204e+01    6.809683e+03
  4.619493e+01    6.828725e+03
  4.621781e+01    6.845870e+03
  4.624070e+01    6.877549e+03
  4.626358e+01    6.930212e+03
  4.628647e+01    6.996658e+03
  4.630935e+01    7.138507e+03
  4.633224e+01    7.366384e+03
  4.635513e+01    7.687503e+03
  4.637801e+01    8.113413e+03
  4.640090e+01    8.501874e+03
  4.642378e+01    8.678896e+03
  4.644667e+01    8.615915e+03
  4.646955e+01    8.313550e+03
  4.649244e+01    7.933463e+03
  4.651532e+01    7.570815e+03
  4.653821e+01    7.323646e+03
  4.656109e+01    7.164788e+03
  4.658398e+01    7.075405e+03
  4.660686e+01    7.002342e+03
  4.662975e+01    6.945251e+03
  4.665263e+01    6.911463e+03
  4.667552e+01    6.879862e+03
  4.669841e+01    6.860709e+03
  4.672129e+01    6.868360e+03
  4.674418e+01    6.867185e+03
  4.676706e+01    6.877149e+03
  4.678995e+01    6.904090e+03
  4.681283e+01    6.909976e+03
  4.683572e+01    6.917178e+03
  4.685860e+01    6.900194e+03
  4.688149e+01    6.900111e+03
  4.690437e+01    6.893020e+03
  4.692726e+01    6.887885e+03
  4.695014e+01    6.881803e+03
  4.697303e+01    6.890400e+03
  4.699592e+01    6.900802e+03
  4.701880e+01    6.904551e+03
  4.704169e+01    6.922550e+03
  4.706457e+01    6.930671e+03
  4.708746e+01    6.952792e+03
  4.711034e+01    6.971746e+03
  4.713323e+01    7.016059e+03
  4.715611e+01    7.009333e+03
  4.717900e+01    7.029900e+03
  4.720188e+01    7.055374e+03
  4.722477e+01    7.078208e+03
  4.724765e+01    7.126668e+03
  4.727054e+01    7.165441e+03
  4.729343e+01    7.243071e+03
  4.731631e+01    7.352111e+03
  4.733920e+01    7.513401e+03
  4.736208e+01    7.758281e+03
  4.738497e+01    8.074624e+03
  4.740785e+01    8.372835e+03
  4.743074e+01    8.536740e+03
  4.745362e+01    8.513866e+03
  4.747651e+01    8.394032e+03
  4.749939e+01    8.187056e+03
  4.752228e+01    7.986931e+03
  4.754516e+01    7.869038e+03
  4.756805e+01    7.736907e+03
  4.759094e+01    7.785155e+03
  4.761382e+01    7.835180e+03
  4.763671e+01    7.828209e+03
  4.765959e+01    7.798280e+03
  4.768248e+01    7.788688e+03
  4.770536e+01    7.763392e+03
  4.772825e+01    7.649875e+03
  4.775113e+01    7.708823e+03
  4.777402e+01    7.554791e+03
  4.779690e+01    7.539371e+03
  4.781979e+01    7.284794e+03
  4.784267e+01    7.006878e+03
  4.786556e+01    6.027229e+03
  4.788844e+01    2.936224e+03