File: Output/ROCK_XRD/WAM39B_integrated/rampe1/wam39b_rampe_1_xrd_000036_integrated.dat
# == pyFAI calibration ==
# Distance Sample to Detector: 0.261615 m
# PONI: 2.023e-01, 2.348e-01 m
# Rotations: -0.026380 0.002005 0.000000 rad
#
# == Fit2d calibration ==
# Distance Sample-beamCenter: 261.707 mm
# Center: x=6119.331, y=5134.776 pix
# Tilt: 1.516 deg  TiltPlanRot: 4.347 deg
#
# Detector Rayonix SX165	 PixelSize= 3.950e-05, 3.950e-05 m
#    Detector has a mask: True
#    Detector has a dark current: False
#    detector has a flat field: False
#
# Wavelength: 1.12713e-10 m
# Mask applied: from detector
# Dark current applied: False
# Flat field applied: False
# Polarization factor: None
# Normalization factor: 1.0
# --> ROCK\\WAM39B_integrated\wam39b_rampe_1_xrd_000036_integrated.dat
#       2th_deg             I
  2.502596e+01    4.793790e+03
  2.504885e+01    1.257635e+04
  2.507173e+01    1.691601e+04
  2.509462e+01    1.794911e+04
  2.511750e+01    1.962345e+04
  2.514039e+01    2.033934e+04
  2.516327e+01    2.025560e+04
  2.518616e+01    2.006837e+04
  2.520905e+01    1.992460e+04
  2.523193e+01    1.968207e+04
  2.525482e+01    1.975231e+04
  2.527770e+01    2.009141e+04
  2.530059e+01    1.998277e+04
  2.532347e+01    1.976679e+04
  2.534636e+01    1.958679e+04
  2.536924e+01    1.949112e+04
  2.539213e+01    1.945163e+04
  2.541501e+01    1.942138e+04
  2.543790e+01    1.939905e+04
  2.546078e+01    1.938903e+04
  2.548367e+01    1.930165e+04
  2.550656e+01    1.908446e+04
  2.552944e+01    1.892573e+04
  2.555233e+01    1.910690e+04
  2.557521e+01    1.918108e+04
  2.559810e+01    1.908786e+04
  2.562098e+01    1.906762e+04
  2.564387e+01    1.908296e+04
  2.566675e+01    1.908702e+04
  2.568964e+01    1.900171e+04
  2.571252e+01    1.893222e+04
  2.573541e+01    1.893933e+04
  2.575829e+01    1.889036e+04
  2.578118e+01    1.879136e+04
  2.580407e+01    1.876237e+04
  2.582695e+01    1.875425e+04
  2.584984e+01    1.873204e+04
  2.587272e+01    1.872586e+04
  2.589561e+01    1.879644e+04
  2.591849e+01    1.879512e+04
  2.594138e+01    1.883398e+04
  2.596426e+01    1.895978e+04
  2.598715e+01    1.900844e+04
  2.601003e+01    1.918630e+04
  2.603292e+01    1.934706e+04
  2.605580e+01    1.954109e+04
  2.607869e+01    1.988717e+04
  2.610157e+01    2.035002e+04
  2.612446e+01    2.102766e+04
  2.614735e+01    2.207622e+04
  2.617023e+01    2.368821e+04
  2.619312e+01    2.628325e+04
  2.621600e+01    3.050739e+04
  2.623889e+01    3.727380e+04
  2.626177e+01    4.696251e+04
  2.628466e+01    5.685108e+04
  2.630754e+01    6.271673e+04
  2.633043e+01    6.160386e+04
  2.635331e+01    5.406889e+04
  2.637620e+01    4.342015e+04
  2.639908e+01    3.410288e+04
  2.642197e+01    2.804629e+04
  2.644486e+01    2.447829e+04
  2.646774e+01    2.236739e+04
  2.649063e+01    2.092021e+04
  2.651351e+01    2.000191e+04
  2.653640e+01    1.934789e+04
  2.655928e+01    1.887638e+04
  2.658217e+01    1.851605e+04
  2.660505e+01    1.824231e+04
  2.662794e+01    1.804163e+04
  2.665082e+01    1.785427e+04
  2.667371e+01    1.771010e+04
  2.669659e+01    1.759271e+04
  2.671948e+01    1.747790e+04
  2.674237e+01    1.738590e+04
  2.676525e+01    1.730293e+04
  2.678814e+01    1.722133e+04
  2.681102e+01    1.715239e+04
  2.683391e+01    1.707110e+04
  2.685679e+01    1.700358e+04
  2.687968e+01    1.696270e+04
  2.690256e+01    1.686965e+04
  2.692545e+01    1.681745e+04
  2.694833e+01    1.674972e+04
  2.697122e+01    1.667784e+04
  2.699410e+01    1.662754e+04
  2.701699e+01    1.662720e+04
  2.703988e+01    1.656096e+04
  2.706276e+01    1.650968e+04
  2.708565e+01    1.647879e+04
  2.710853e+01    1.643408e+04
  2.713142e+01    1.639125e+04
  2.715430e+01    1.634310e+04
  2.717719e+01    1.629208e+04
  2.720007e+01    1.621768e+04
  2.722296e+01    1.616732e+04
  2.724584e+01    1.611377e+04
  2.726873e+01    1.609929e+04
  2.729161e+01    1.604812e+04
  2.731450e+01    1.600324e+04
  2.733738e+01    1.595262e+04
  2.736027e+01    1.589580e+04
  2.738316e+01    1.584752e+04
  2.740604e+01    1.580381e+04
  2.742893e+01    1.577553e+04
  2.745181e+01    1.576601e+04
  2.747470e+01    1.572448e+04
  2.749758e+01    1.568774e+04
  2.752047e+01    1.565842e+04
  2.754335e+01    1.563763e+04
  2.756624e+01    1.561808e+04
  2.758912e+01    1.560122e+04
  2.761201e+01    1.557474e+04
  2.763489e+01    1.554613e+04
  2.765778e+01    1.553658e+04
  2.768067e+01    1.553505e+04
  2.770355e+01    1.555975e+04
  2.772644e+01    1.555959e+04
  2.774932e+01    1.558240e+04
  2.777221e+01    1.568282e+04
  2.779509e+01    1.585347e+04
  2.781798e+01    1.615323e+04
  2.784086e+01    1.663859e+04
  2.786375e+01    1.742822e+04
  2.788663e+01    1.849099e+04
  2.790952e+01    1.958647e+04
  2.793240e+01    2.022774e+04
  2.795529e+01    1.999077e+04
  2.797818e+01    1.901039e+04
  2.800106e+01    1.777676e+04
  2.802395e+01    1.672837e+04
  2.804683e+01    1.600412e+04
  2.806972e+01    1.554380e+04
  2.809260e+01    1.524812e+04
  2.811549e+01    1.504287e+04
  2.813837e+01    1.490282e+04
  2.816126e+01    1.478432e+04
  2.818414e+01    1.468335e+04
  2.820703e+01    1.460261e+04
  2.822991e+01    1.452965e+04
  2.825280e+01    1.445952e+04
  2.827568e+01    1.440278e+04
  2.829857e+01    1.434926e+04
  2.832146e+01    1.430066e+04
  2.834434e+01    1.424679e+04
  2.836723e+01    1.419922e+04
  2.839011e+01    1.415510e+04
  2.841300e+01    1.410324e+04
  2.843588e+01    1.406641e+04
  2.845877e+01    1.401276e+04
  2.848165e+01    1.395456e+04
  2.850454e+01    1.391502e+04
  2.852742e+01    1.388983e+04
  2.855031e+01    1.387092e+04
  2.857319e+01    1.381821e+04
  2.859608e+01    1.376335e+04
  2.861897e+01    1.371553e+04
  2.864185e+01    1.366475e+04
  2.866474e+01    1.361838e+04
  2.868762e+01    1.355335e+04
  2.871051e+01    1.350886e+04
  2.873339e+01    1.346954e+04
  2.875628e+01    1.342142e+04
  2.877916e+01    1.337413e+04
  2.880205e+01    1.331550e+04
  2.882493e+01    1.327748e+04
  2.884782e+01    1.324681e+04
  2.887070e+01    1.320210e+04
  2.889359e+01    1.314457e+04
  2.891648e+01    1.309802e+04
  2.893936e+01    1.305458e+04
  2.896225e+01    1.300395e+04
  2.898513e+01    1.294915e+04
  2.900802e+01    1.291300e+04
  2.903090e+01    1.286364e+04
  2.905379e+01    1.280394e+04
  2.907667e+01    1.275859e+04
  2.909956e+01    1.270919e+04
  2.912244e+01    1.266433e+04
  2.914533e+01    1.262445e+04
  2.916821e+01    1.259247e+04
  2.919110e+01    1.255456e+04
  2.921398e+01    1.252002e+04
  2.923687e+01    1.249486e+04
  2.925976e+01    1.246267e+04
  2.928264e+01    1.244465e+04
  2.930553e+01    1.244919e+04
  2.932841e+01    1.244917e+04
  2.935130e+01    1.248392e+04
  2.937418e+01    1.257884e+04
  2.939707e+01    1.278734e+04
  2.941995e+01    1.309725e+04
  2.944284e+01    1.348776e+04
  2.946572e+01    1.383989e+04
  2.948861e+01    1.391453e+04
  2.951149e+01    1.366071e+04
  2.953438e+01    1.322051e+04
  2.955727e+01    1.274926e+04
  2.958015e+01    1.238465e+04
  2.960304e+01    1.215333e+04
  2.962592e+01    1.199789e+04
  2.964881e+01    1.188245e+04
  2.967169e+01    1.179929e+04
  2.969458e+01    1.174382e+04
  2.971746e+01    1.169476e+04
  2.974035e+01    1.165269e+04
  2.976323e+01    1.160702e+04
  2.978612e+01    1.158471e+04
  2.980900e+01    1.156430e+04
  2.983189e+01    1.153106e+04
  2.985478e+01    1.150352e+04
  2.987766e+01    1.146820e+04
  2.990055e+01    1.145338e+04
  2.992343e+01    1.145688e+04
  2.994632e+01    1.145811e+04
  2.996920e+01    1.145507e+04
  2.999209e+01    1.146073e+04
  3.001497e+01    1.147556e+04
  3.003786e+01    1.148829e+04
  3.006074e+01    1.149833e+04
  3.008363e+01    1.151196e+04
  3.010651e+01    1.154051e+04
  3.012940e+01    1.159309e+04
  3.015228e+01    1.163608e+04
  3.017517e+01    1.170611e+04
  3.019806e+01    1.182277e+04
  3.022094e+01    1.195521e+04
  3.024383e+01    1.214573e+04
  3.026671e+01    1.244466e+04
  3.028960e+01    1.290593e+04
  3.031248e+01    1.362325e+04
  3.033537e+01    1.482735e+04
  3.035825e+01    1.685298e+04
  3.038114e+01    2.033199e+04
  3.040402e+01    2.651162e+04
  3.042691e+01    3.749608e+04
  3.044979e+01    5.128618e+04
  3.047268e+01    6.206217e+04
  3.049557e+01    6.479544e+04
  3.051845e+01    5.863595e+04
  3.054134e+01    4.618912e+04
  3.056422e+01    3.298431e+04
  3.058711e+01    2.355060e+04
  3.060999e+01    1.844157e+04
  3.063288e+01    1.577611e+04
  3.065576e+01    1.424609e+04
  3.067865e+01    1.333336e+04
  3.070153e+01    1.278264e+04
  3.072442e+01    1.245896e+04
  3.074730e+01    1.230672e+04
  3.077019e+01    1.231372e+04
  3.079308e+01    1.250994e+04
  3.081596e+01    1.297200e+04
  3.083885e+01    1.388508e+04
  3.086173e+01    1.556199e+04
  3.088462e+01    1.838287e+04
  3.090750e+01    2.236014e+04
  3.093039e+01    2.657075e+04
  3.095327e+01    2.905534e+04
  3.097616e+01    2.840927e+04
  3.099904e+01    2.503183e+04
  3.102193e+01    2.066394e+04
  3.104481e+01    1.691558e+04
  3.106770e+01    1.438544e+04
  3.109059e+01    1.286276e+04
  3.111347e+01    1.199951e+04
  3.113636e+01    1.148759e+04
  3.115924e+01    1.115353e+04
  3.118213e+01    1.094442e+04
  3.120501e+01    1.079135e+04
  3.122790e+01    1.066703e+04
  3.125078e+01    1.057931e+04
  3.127367e+01    1.050123e+04
  3.129655e+01    1.043367e+04
  3.131944e+01    1.038062e+04
  3.134232e+01    1.032909e+04
  3.136521e+01    1.029098e+04
  3.138809e+01    1.025843e+04
  3.141098e+01    1.022412e+04
  3.143387e+01    1.019392e+04
  3.145675e+01    1.016248e+04
  3.147964e+01    1.013166e+04
  3.150252e+01    1.009638e+04
  3.152541e+01    1.007337e+04
  3.154829e+01    1.003741e+04
  3.157118e+01    1.001225e+04
  3.159406e+01    9.996297e+03
  3.161695e+01    9.966746e+03
  3.163983e+01    9.941644e+03
  3.166272e+01    9.930835e+03
  3.168560e+01    9.908090e+03
  3.170849e+01    9.886584e+03
  3.173138e+01    9.870658e+03
  3.175426e+01    9.846776e+03
  3.177715e+01    9.827041e+03
  3.180003e+01    9.812571e+03
  3.182292e+01    9.795362e+03
  3.184580e+01    9.777557e+03
  3.186869e+01    9.766822e+03
  3.189157e+01    9.747289e+03
  3.191446e+01    9.729745e+03
  3.193734e+01    9.720797e+03
  3.196023e+01    9.704733e+03
  3.198311e+01    9.685370e+03
  3.200600e+01    9.670267e+03
  3.202889e+01    9.656894e+03
  3.205177e+01    9.642360e+03
  3.207466e+01    9.623278e+03
  3.209754e+01    9.600834e+03
  3.212043e+01    9.598430e+03
  3.214331e+01    9.600694e+03
  3.216620e+01    9.601271e+03
  3.218908e+01    9.597661e+03
  3.221197e+01    9.607977e+03
  3.223485e+01    9.651212e+03
  3.225774e+01    9.747418e+03
  3.228062e+01    9.914504e+03
  3.230351e+01    1.017935e+04
  3.232639e+01    1.054269e+04
  3.234928e+01    1.089681e+04
  3.237217e+01    1.106995e+04
  3.239505e+01    1.094590e+04
  3.241794e+01    1.059575e+04
  3.244082e+01    1.018938e+04
  3.246371e+01    9.861410e+03
  3.248659e+01    9.641641e+03
  3.250948e+01    9.507014e+03
  3.253236e+01    9.423556e+03
  3.255525e+01    9.363979e+03
  3.257813e+01    9.321919e+03
  3.260102e+01    9.300634e+03
  3.262390e+01    9.285384e+03
  3.264679e+01    9.265062e+03
  3.266968e+01    9.236187e+03
  3.269256e+01    9.214030e+03
  3.271545e+01    9.208849e+03
  3.273833e+01    9.188486e+03
  3.276122e+01    9.166831e+03
  3.278410e+01    9.153758e+03
  3.280699e+01    9.141477e+03
  3.282987e+01    9.132416e+03
  3.285276e+01    9.114222e+03
  3.287564e+01    9.091162e+03
  3.289853e+01    9.082967e+03
  3.292141e+01    9.068002e+03
  3.294430e+01    9.054412e+03
  3.296719e+01    9.044614e+03
  3.299007e+01    9.023770e+03
  3.301296e+01    9.009025e+03
  3.303584e+01    9.003411e+03
  3.305873e+01    8.997958e+03
  3.308161e+01    8.988806e+03
  3.310450e+01    8.979577e+03
  3.312738e+01    8.971642e+03
  3.315027e+01    8.961371e+03
  3.317315e+01    8.947825e+03
  3.319604e+01    8.938833e+03
  3.321892e+01    8.931604e+03
  3.324181e+01    8.926004e+03
  3.326469e+01    8.912680e+03
  3.328758e+01    8.913790e+03
  3.331047e+01    8.918725e+03
  3.333335e+01    8.911256e+03
  3.335624e+01    8.908531e+03
  3.337912e+01    8.915619e+03
  3.340201e+01    8.922745e+03
  3.342489e+01    8.936951e+03
  3.344778e+01    8.958618e+03
  3.347066e+01    8.994020e+03
  3.349355e+01    9.048059e+03
  3.351643e+01    9.120827e+03
  3.353932e+01    9.237856e+03
  3.356220e+01    9.438349e+03
  3.358509e+01    9.778084e+03
  3.360798e+01    1.037824e+04
  3.363086e+01    1.146010e+04
  3.365375e+01    1.332969e+04
  3.367663e+01    1.611525e+04
  3.369952e+01    1.933374e+04
  3.372240e+01    2.163630e+04
  3.374529e+01    2.177215e+04
  3.376817e+01    1.972862e+04
  3.379106e+01    1.661202e+04
  3.381394e+01    1.370992e+04
  3.383683e+01    1.164693e+04
  3.385971e+01    1.040288e+04
  3.388260e+01    9.713276e+03
  3.390549e+01    9.322430e+03
  3.392837e+01    9.078928e+03
  3.395126e+01    8.917244e+03
  3.397414e+01    8.814998e+03
  3.399703e+01    8.727466e+03
  3.401991e+01    8.665026e+03
  3.404280e+01    8.617775e+03
  3.406568e+01    8.570689e+03
  3.408857e+01    8.538672e+03
  3.411145e+01    8.514868e+03
  3.413434e+01    8.481420e+03
  3.415722e+01    8.452762e+03
  3.418011e+01    8.431529e+03
  3.420300e+01    8.410100e+03
  3.422588e+01    8.388804e+03
  3.424877e+01    8.379766e+03
  3.427165e+01    8.369273e+03
  3.429454e+01    8.345246e+03
  3.431742e+01    8.329403e+03
  3.434031e+01    8.322560e+03
  3.436319e+01    8.310691e+03
  3.438608e+01    8.290336e+03
  3.440896e+01    8.273113e+03
  3.443185e+01    8.254726e+03
  3.445473e+01    8.238308e+03
  3.447762e+01    8.226155e+03
  3.450050e+01    8.213036e+03
  3.452339e+01    8.197312e+03
  3.454628e+01    8.186801e+03
  3.456916e+01    8.175004e+03
  3.459205e+01    8.160746e+03
  3.461493e+01    8.148701e+03
  3.463782e+01    8.139334e+03
  3.466070e+01    8.129104e+03
  3.468359e+01    8.117221e+03
  3.470647e+01    8.108248e+03
  3.472936e+01    8.093335e+03
  3.475224e+01    8.083412e+03
  3.477513e+01    8.078668e+03
  3.479801e+01    8.059376e+03
  3.482090e+01    8.050632e+03
  3.484379e+01    8.038662e+03
  3.486667e+01    8.028026e+03
  3.488956e+01    8.021500e+03
  3.491244e+01    8.006338e+03
  3.493533e+01    7.993731e+03
  3.495821e+01    7.975473e+03
  3.498110e+01    7.966499e+03
  3.500398e+01    7.965590e+03
  3.502687e+01    7.959763e+03
  3.504975e+01    7.952555e+03
  3.507264e+01    7.943410e+03
  3.509552e+01    7.928462e+03
  3.511841e+01    7.925297e+03
  3.514130e+01    7.916449e+03
  3.516418e+01    7.910974e+03
  3.518707e+01    7.893911e+03
  3.520995e+01    7.889402e+03
  3.523284e+01    7.886175e+03
  3.525572e+01    7.874603e+03
  3.527861e+01    7.859243e+03
  3.530149e+01    7.851367e+03
  3.532438e+01    7.839468e+03
  3.534726e+01    7.834172e+03
  3.537015e+01    7.828383e+03
  3.539303e+01    7.815655e+03
  3.541592e+01    7.802312e+03
  3.543880e+01    7.788771e+03
  3.546169e+01    7.780821e+03
  3.548458e+01    7.766127e+03
  3.550746e+01    7.756916e+03
  3.553035e+01    7.751119e+03
  3.555323e+01    7.740196e+03
  3.557612e+01    7.729183e+03
  3.559900e+01    7.722240e+03
  3.562189e+01    7.714140e+03
  3.564477e+01    7.707676e+03
  3.566766e+01    7.705104e+03
  3.569054e+01    7.701930e+03
  3.571343e+01    7.692552e+03
  3.573631e+01    7.684523e+03
  3.575920e+01    7.679488e+03
  3.578209e+01    7.686549e+03
  3.580497e+01    7.685521e+03
  3.582786e+01    7.682674e+03
  3.585074e+01    7.681299e+03
  3.587363e+01    7.677292e+03
  3.589651e+01    7.679379e+03
  3.591940e+01    7.685723e+03
  3.594228e+01    7.692337e+03
  3.596517e+01    7.703374e+03
  3.598805e+01    7.714187e+03
  3.601094e+01    7.724267e+03
  3.603382e+01    7.739650e+03
  3.605671e+01    7.754716e+03
  3.607960e+01    7.785453e+03
  3.610248e+01    7.825058e+03
  3.612537e+01    7.878194e+03
  3.614825e+01    7.966432e+03
  3.617114e+01    8.113792e+03
  3.619402e+01    8.363677e+03
  3.621691e+01    8.812428e+03
  3.623979e+01    9.580303e+03
  3.626268e+01    1.071593e+04
  3.628556e+01    1.198415e+04
  3.630845e+01    1.281912e+04
  3.633133e+01    1.278310e+04
  3.635422e+01    1.193989e+04
  3.637710e+01    1.072223e+04
  3.639999e+01    9.615612e+03
  3.642288e+01    8.856874e+03
  3.644576e+01    8.397434e+03
  3.646865e+01    8.160259e+03
  3.649153e+01    8.032845e+03
  3.651442e+01    7.946449e+03
  3.653730e+01    7.911203e+03
  3.656019e+01    7.883930e+03
  3.658307e+01    7.862391e+03
  3.660596e+01    7.847726e+03
  3.662884e+01    7.835774e+03
  3.665173e+01    7.822097e+03
  3.667461e+01    7.825326e+03
  3.669750e+01    7.829975e+03
  3.672039e+01    7.832675e+03
  3.674327e+01    7.836155e+03
  3.676616e+01    7.839576e+03
  3.678904e+01    7.852075e+03
  3.681193e+01    7.872205e+03
  3.683481e+01    7.878668e+03
  3.685770e+01    7.880626e+03
  3.688058e+01    7.899943e+03
  3.690347e+01    7.918801e+03
  3.692635e+01    7.935011e+03
  3.694924e+01    7.944022e+03
  3.697212e+01    7.963705e+03
  3.699501e+01    7.996794e+03
  3.701790e+01    8.023516e+03
  3.704078e+01    8.053993e+03
  3.706367e+01    8.076971e+03
  3.708655e+01    8.109774e+03
  3.710944e+01    8.162069e+03
  3.713232e+01    8.210516e+03
  3.715521e+01    8.271600e+03
  3.717809e+01    8.349147e+03
  3.720098e+01    8.439815e+03
  3.722386e+01    8.546145e+03
  3.724675e+01    8.675709e+03
  3.726963e+01    8.842059e+03
  3.729252e+01    9.065227e+03
  3.731541e+01    9.362040e+03
  3.733829e+01    9.786422e+03
  3.736118e+01    1.043485e+04
  3.738406e+01    1.147274e+04
  3.740695e+01    1.326587e+04
  3.742983e+01    1.650782e+04
  3.745272e+01    2.240925e+04
  3.747560e+01    3.244642e+04
  3.749849e+01    4.687471e+04
  3.752137e+01    6.198505e+04
  3.754426e+01    7.078977e+04
  3.756714e+01    6.877636e+04
  3.759003e+01    5.757945e+04
  3.761291e+01    4.262863e+04
  3.763580e+01    2.950391e+04
  3.765869e+01    2.069557e+04
  3.768157e+01    1.561507e+04
  3.770446e+01    1.284743e+04
  3.772734e+01    1.130242e+04
  3.775023e+01    1.037219e+04
  3.777311e+01    9.779101e+03
  3.779600e+01    9.391732e+03
  3.781888e+01    9.102294e+03
  3.784177e+01    8.893240e+03
  3.786465e+01    8.730387e+03
  3.788754e+01    8.601216e+03
  3.791042e+01    8.504019e+03
  3.793331e+01    8.430816e+03
  3.795620e+01    8.367383e+03
  3.797908e+01    8.292892e+03
  3.800197e+01    8.235600e+03
  3.802485e+01    8.196004e+03
  3.804774e+01    8.151975e+03
  3.807062e+01    8.124372e+03
  3.809351e+01    8.104230e+03
  3.811639e+01    8.083603e+03
  3.813928e+01    8.064000e+03
  3.816216e+01    8.039644e+03
  3.818505e+01    8.024755e+03
  3.820793e+01    8.007812e+03
  3.823082e+01    7.986192e+03
  3.825371e+01    7.983648e+03
  3.827659e+01    7.975138e+03
  3.829948e+01    7.968878e+03
  3.832236e+01    7.965384e+03
  3.834525e+01    7.951127e+03
  3.836813e+01    7.945534e+03
  3.839102e+01    7.941261e+03
  3.841390e+01    7.936437e+03
  3.843679e+01    7.931744e+03
  3.845967e+01    7.942572e+03
  3.848256e+01    7.948849e+03
  3.850544e+01    7.961764e+03
  3.852833e+01    7.975001e+03
  3.855121e+01    7.990618e+03
  3.857410e+01    8.019721e+03
  3.859699e+01    8.070799e+03
  3.861987e+01    8.163126e+03
  3.864276e+01    8.338459e+03
  3.866564e+01    8.653278e+03
  3.868853e+01    9.142078e+03
  3.871141e+01    9.713155e+03
  3.873430e+01    1.015540e+04
  3.875718e+01    1.023758e+04
  3.878007e+01    9.940041e+03
  3.880295e+01    9.400770e+03
  3.882584e+01    8.856480e+03
  3.884872e+01    8.459224e+03
  3.887161e+01    8.218903e+03
  3.889450e+01    8.081581e+03
  3.891738e+01    8.007013e+03
  3.894027e+01    7.966526e+03
  3.896315e+01    7.939953e+03
  3.898604e+01    7.921520e+03
  3.900892e+01    7.900192e+03
  3.903181e+01    7.883069e+03
  3.905469e+01    7.872570e+03
  3.907758e+01    7.860651e+03
  3.910046e+01    7.854730e+03
  3.912335e+01    7.854209e+03
  3.914623e+01    7.844539e+03
  3.916912e+01    7.838408e+03
  3.919201e+01    7.847939e+03
  3.921489e+01    7.824105e+03
  3.923778e+01    7.812006e+03
  3.926066e+01    7.812813e+03
  3.928355e+01    7.817792e+03
  3.930643e+01    7.804176e+03
  3.932932e+01    7.796357e+03
  3.935220e+01    7.800973e+03
  3.937509e+01    7.795698e+03
  3.939797e+01    7.782688e+03
  3.942086e+01    7.772708e+03
  3.944374e+01    7.751894e+03
  3.946663e+01    7.744819e+03
  3.948951e+01    7.732410e+03
  3.951240e+01    7.724431e+03
  3.953529e+01    7.723136e+03
  3.955817e+01    7.720875e+03
  3.958106e+01    7.713013e+03
  3.960394e+01    7.703875e+03
  3.962683e+01    7.694677e+03
  3.964971e+01    7.689584e+03
  3.967260e+01    7.684230e+03
  3.969548e+01    7.684853e+03
  3.971837e+01    7.683672e+03
  3.974125e+01    7.678695e+03
  3.976414e+01    7.679831e+03
  3.978702e+01    7.700751e+03
  3.980991e+01    7.740771e+03
  3.983280e+01    7.815485e+03
  3.985568e+01    7.941608e+03
  3.987857e+01    8.104798e+03
  3.990145e+01    8.238572e+03
  3.992434e+01    8.233798e+03
  3.994722e+01    8.140356e+03
  3.997011e+01    8.001835e+03
  3.999299e+01    7.849825e+03
  4.001588e+01    7.743269e+03
  4.003876e+01    7.672794e+03
  4.006165e+01    7.640594e+03
  4.008453e+01    7.630721e+03
  4.010742e+01    7.616239e+03
  4.013031e+01    7.598647e+03
  4.015319e+01    7.587163e+03
  4.017608e+01    7.581414e+03
  4.019896e+01    7.573437e+03
  4.022185e+01    7.563117e+03
  4.024473e+01    7.567163e+03
  4.026762e+01    7.566794e+03
  4.029050e+01    7.559807e+03
  4.031339e+01    7.550306e+03
  4.033627e+01    7.543664e+03
  4.035916e+01    7.535009e+03
  4.038204e+01    7.531041e+03
  4.040493e+01    7.527290e+03
  4.042782e+01    7.519876e+03
  4.045070e+01    7.518409e+03
  4.047359e+01    7.518120e+03
  4.049647e+01    7.510027e+03
  4.051936e+01    7.510886e+03
  4.054224e+01    7.512330e+03
  4.056513e+01    7.502855e+03
  4.058801e+01    7.508200e+03
  4.061090e+01    7.504275e+03
  4.063378e+01    7.501527e+03
  4.065667e+01    7.506605e+03
  4.067955e+01    7.511457e+03
  4.070244e+01    7.514362e+03
  4.072532e+01    7.522736e+03
  4.074821e+01    7.532560e+03
  4.077110e+01    7.545627e+03
  4.079398e+01    7.562734e+03
  4.081687e+01    7.581184e+03
  4.083975e+01    7.630652e+03
  4.086264e+01    7.700673e+03
  4.088552e+01    7.799106e+03
  4.090841e+01    7.966353e+03
  4.093129e+01    8.268197e+03
  4.095418e+01    8.840511e+03
  4.097706e+01    9.829152e+03
  4.099995e+01    1.130403e+04
  4.102283e+01    1.293644e+04
  4.104572e+01    1.398265e+04
  4.106861e+01    1.393728e+04
  4.109149e+01    1.289735e+04
  4.111438e+01    1.136915e+04
  4.113726e+01    9.915563e+03
  4.116015e+01    8.886374e+03
  4.118303e+01    8.278227e+03
  4.120592e+01    7.950477e+03
  4.122880e+01    7.780134e+03
  4.125169e+01    7.682427e+03
  4.127457e+01    7.605086e+03
  4.129746e+01    7.553292e+03
  4.132034e+01    7.510444e+03
  4.134323e+01    7.485991e+03
  4.136612e+01    7.462560e+03
  4.138900e+01    7.446736e+03
  4.141189e+01    7.433309e+03
  4.143477e+01    7.426321e+03
  4.145766e+01    7.425032e+03
  4.148054e+01    7.415988e+03
  4.150343e+01    7.406622e+03
  4.152631e+01    7.400751e+03
  4.154920e+01    7.405343e+03
  4.157208e+01    7.394827e+03
  4.159497e+01    7.399731e+03
  4.161785e+01    7.406619e+03
  4.164074e+01    7.403572e+03
  4.166362e+01    7.398190e+03
  4.168651e+01    7.400443e+03
  4.170940e+01    7.395146e+03
  4.173228e+01    7.385180e+03
  4.175517e+01    7.374958e+03
  4.177805e+01    7.371918e+03
  4.180094e+01    7.371062e+03
  4.182382e+01    7.365099e+03
  4.184671e+01    7.366896e+03
  4.186959e+01    7.373470e+03
  4.189248e+01    7.364576e+03
  4.191536e+01    7.361633e+03
  4.193825e+01    7.370241e+03
  4.196113e+01    7.384041e+03
  4.198402e+01    7.392464e+03
  4.200691e+01    7.418207e+03
  4.202979e+01    7.466382e+03
  4.205268e+01    7.547771e+03
  4.207556e+01    7.698322e+03
  4.209845e+01    7.942958e+03
  4.212133e+01    8.279027e+03
  4.214422e+01    8.598009e+03
  4.216710e+01    8.738750e+03
  4.218999e+01    8.645478e+03
  4.221287e+01    8.370442e+03
  4.223576e+01    8.035307e+03
  4.225864e+01    7.753344e+03
  4.228153e+01    7.563411e+03
  4.230442e+01    7.462211e+03
  4.232730e+01    7.412741e+03
  4.235019e+01    7.389530e+03
  4.237307e+01    7.380366e+03
  4.239596e+01    7.355802e+03
  4.241884e+01    7.346914e+03
  4.244173e+01    7.350358e+03
  4.246461e+01    7.346445e+03
  4.248750e+01    7.331932e+03
  4.251038e+01    7.329956e+03
  4.253327e+01    7.327164e+03
  4.255615e+01    7.314245e+03
  4.257904e+01    7.313471e+03
  4.260192e+01    7.315995e+03
  4.262481e+01    7.313750e+03
  4.264770e+01    7.312634e+03
  4.267058e+01    7.322953e+03
  4.269347e+01    7.324848e+03
  4.271635e+01    7.325881e+03
  4.273924e+01    7.324546e+03
  4.276212e+01    7.325489e+03
  4.278501e+01    7.330668e+03
  4.280789e+01    7.338631e+03
  4.283078e+01    7.336358e+03
  4.285366e+01    7.347820e+03
  4.287655e+01    7.355031e+03
  4.289943e+01    7.375356e+03
  4.292232e+01    7.393241e+03
  4.294521e+01    7.423617e+03
  4.296809e+01    7.443042e+03
  4.299098e+01    7.457066e+03
  4.301386e+01    7.483813e+03
  4.303675e+01    7.520425e+03
  4.305963e+01    7.563144e+03
  4.308252e+01    7.639458e+03
  4.310540e+01    7.777082e+03
  4.312829e+01    8.006422e+03
  4.315117e+01    8.440954e+03
  4.317406e+01    9.197127e+03
  4.319694e+01    1.037747e+04
  4.321983e+01    1.176298e+04
  4.324272e+01    1.279899e+04
  4.326560e+01    1.299018e+04
  4.328849e+01    1.231418e+04
  4.331137e+01    1.114005e+04
  4.333426e+01    9.911562e+03
  4.335714e+01    9.020136e+03
  4.338003e+01    8.518173e+03
  4.340291e+01    8.311203e+03
  4.342580e+01    8.288302e+03
  4.344868e+01    8.385997e+03
  4.347157e+01    8.660667e+03
  4.349445e+01    9.207528e+03
  4.351734e+01    1.024029e+04
  4.354022e+01    1.213719e+04
  4.356311e+01    1.560348e+04
  4.358600e+01    2.112509e+04
  4.360888e+01    2.702938e+04
  4.363177e+01    2.995999e+04
  4.365465e+01    2.869578e+04
  4.367754e+01    2.424451e+04
  4.370042e+01    1.826216e+04
  4.372331e+01    1.369804e+04
  4.374619e+01    1.100332e+04
  4.376908e+01    9.574404e+03
  4.379196e+01    8.779350e+03
  4.381485e+01    8.335054e+03
  4.383773e+01    8.059587e+03
  4.386062e+01    7.894109e+03
  4.388351e+01    7.790088e+03
  4.390639e+01    7.722750e+03
  4.392928e+01    7.665978e+03
  4.395216e+01    7.638682e+03
  4.397505e+01    7.637586e+03
  4.399793e+01    7.647038e+03
  4.402082e+01    7.666387e+03
  4.404370e+01    7.719763e+03
  4.406659e+01    7.784107e+03
  4.408947e+01    7.880459e+03
  4.411236e+01    8.041629e+03
  4.413524e+01    8.281574e+03
  4.415813e+01    8.662896e+03
  4.418102e+01    9.336226e+03
  4.420390e+01    1.055639e+04
  4.422679e+01    1.278063e+04
  4.424967e+01    1.659047e+04
  4.427256e+01    2.205837e+04
  4.429544e+01    2.763163e+04
  4.431833e+01    3.063294e+04
  4.434121e+01    2.983110e+04
  4.436410e+01    2.591167e+04
  4.438698e+01    2.045073e+04
  4.440987e+01    1.544465e+04
  4.443275e+01    1.205806e+04
  4.445564e+01    1.013134e+04
  4.447853e+01    9.093900e+03
  4.450141e+01    8.511028e+03
  4.452430e+01    8.147424e+03
  4.454718e+01    7.900546e+03
  4.457007e+01    7.735693e+03
  4.459295e+01    7.635510e+03
  4.461584e+01    7.559507e+03
  4.463872e+01    7.482363e+03
  4.466161e+01    7.422747e+03
  4.468449e+01    7.378788e+03
  4.470738e+01    7.339040e+03
  4.473026e+01    7.312151e+03
  4.475315e+01    7.295090e+03
  4.477603e+01    7.281212e+03
  4.479892e+01    7.255121e+03
  4.482181e+01    7.243207e+03
  4.484469e+01    7.224396e+03
  4.486758e+01    7.207757e+03
  4.489046e+01    7.207486e+03
  4.491335e+01    7.193766e+03
  4.493623e+01    7.199981e+03
  4.495912e+01    7.196409e+03
  4.498200e+01    7.192937e+03
  4.500489e+01    7.196320e+03
  4.502777e+01    7.200887e+03
  4.505066e+01    7.211345e+03
  4.507354e+01    7.219608e+03
  4.509643e+01    7.235586e+03
  4.511932e+01    7.256395e+03
  4.514220e+01    7.291966e+03
  4.516509e+01    7.335610e+03
  4.518797e+01    7.408704e+03
  4.521086e+01    7.527804e+03
  4.523374e+01    7.753319e+03
  4.525663e+01    8.164837e+03
  4.527951e+01    8.906138e+03
  4.530240e+01    1.009694e+04
  4.532528e+01    1.166154e+04
  4.534817e+01    1.306292e+04
  4.537105e+01    1.361200e+04
  4.539394e+01    1.308873e+04
  4.541683e+01    1.181615e+04
  4.543971e+01    1.029531e+04
  4.546260e+01    9.025581e+03
  4.548548e+01    8.223146e+03
  4.550837e+01    7.763897e+03
  4.553125e+01    7.505201e+03
  4.555414e+01    7.357410e+03
  4.557702e+01    7.259268e+03
  4.559991e+01    7.189380e+03
  4.562279e+01    7.139404e+03
  4.564568e+01    7.116771e+03
  4.566856e+01    7.087280e+03
  4.569145e+01    7.070689e+03
  4.571433e+01    7.055567e+03
  4.573722e+01    7.032187e+03
  4.576011e+01    7.017010e+03
  4.578299e+01    7.012651e+03
  4.580588e+01    7.006296e+03
  4.582876e+01    6.986387e+03
  4.585165e+01    6.990803e+03
  4.587453e+01    6.991748e+03
  4.589742e+01    6.986767e+03
  4.592030e+01    6.961639e+03
  4.594319e+01    6.964067e+03
  4.596607e+01    6.967607e+03
  4.598896e+01    6.954890e+03
  4.601184e+01    6.943277e+03
  4.603473e+01    6.926058e+03
  4.605762e+01    6.941465e+03
  4.608050e+01    6.928333e+03
  4.610339e+01    6.920098e+03
  4.612627e+01    6.934774e+03
  4.614916e+01    6.928374e+03
  4.617204e+01    6.945546e+03
  4.619493e+01    6.968249e+03
  4.621781e+01    6.994305e+03
  4.624070e+01    7.037420e+03
  4.626358e+01    7.127454e+03
  4.628647e+01    7.263147e+03
  4.630935e+01    7.513786e+03
  4.633224e+01    7.930086e+03
  4.635513e+01    8.432700e+03
  4.637801e+01    8.853603e+03
  4.640090e+01    8.974053e+03
  4.642378e+01    8.760095e+03
  4.644667e+01    8.328548e+03
  4.646955e+01    7.850179e+03
  4.649244e+01    7.493450e+03
  4.651532e+01    7.250639e+03
  4.653821e+01    7.132246e+03
  4.656109e+01    7.048218e+03
  4.658398e+01    7.004356e+03
  4.660686e+01    6.987486e+03
  4.662975e+01    6.967745e+03
  4.665263e+01    6.962485e+03
  4.667552e+01    6.955338e+03
  4.669841e+01    6.952142e+03
  4.672129e+01    6.955241e+03
  4.674418e+01    6.948910e+03
  4.676706e+01    6.946819e+03
  4.678995e+01    6.964625e+03
  4.681283e+01    6.966243e+03
  4.683572e+01    6.982326e+03
  4.685860e+01    6.974750e+03
  4.688149e+01    6.979202e+03
  4.690437e+01    6.994507e+03
  4.692726e+01    7.002877e+03
  4.695014e+01    7.007804e+03
  4.697303e+01    7.023416e+03
  4.699592e+01    7.043710e+03
  4.701880e+01    7.056814e+03
  4.704169e+01    7.079818e+03
  4.706457e+01    7.100096e+03
  4.708746e+01    7.115771e+03
  4.711034e+01    7.122101e+03
  4.713323e+01    7.152208e+03
  4.715611e+01    7.153166e+03
  4.717900e+01    7.172675e+03
  4.720188e+01    7.207599e+03
  4.722477e+01    7.250346e+03
  4.724765e+01    7.313973e+03
  4.727054e+01    7.378979e+03
  4.729343e+01    7.496664e+03
  4.731631e+01    7.681885e+03
  4.733920e+01    7.957324e+03
  4.736208e+01    8.321762e+03
  4.738497e+01    8.637957e+03
  4.740785e+01    8.766889e+03
  4.743074e+01    8.672333e+03
  4.745362e+01    8.412017e+03
  4.747651e+01    8.165030e+03
  4.749939e+01    8.004015e+03
  4.752228e+01    7.914678e+03
  4.754516e+01    7.875211e+03
  4.756805e+01    7.817991e+03
  4.759094e+01    7.898151e+03
  4.761382e+01    7.976506e+03
  4.763671e+01    8.014816e+03
  4.765959e+01    7.994979e+03
  4.768248e+01    8.014858e+03
  4.770536e+01    7.984013e+03
  4.772825e+01    7.855108e+03
  4.775113e+01    7.915864e+03
  4.777402e+01    7.766120e+03
  4.779690e+01    7.743036e+03
  4.781979e+01    7.452887e+03
  4.784267e+01    7.198335e+03
  4.786556e+01    6.179634e+03
  4.788844e+01    3.003357e+03