File: Output/ROCK_XRD/lab6_250mm_2_integrated_noblur.dat
# == pyFAI calibration ==
# Distance Sample to Detector: 0.261615 m
# PONI: 2.023e-01, 2.348e-01 m
# Rotations: -0.026380 0.002005 0.000000 rad
#
# == Fit2d calibration ==
# Distance Sample-beamCenter: 261.707 mm
# Center: x=6119.331, y=5134.776 pix
# Tilt: 1.516 deg  TiltPlanRot: 4.347 deg
#
# Detector Rayonix SX165	 PixelSize= 3.950e-05, 3.950e-05 m
#    Detector has a mask: True
#    Detector has a dark current: False
#    detector has a flat field: False
#
# Wavelength: 1.12713e-10 m
# Mask applied: from detector
# Dark current applied: False
# Flat field applied: False
# Polarization factor: None
# Normalization factor: 1.0
# --> integration.dat
#       2th_deg             I
  2.502596e+01    2.554276e+03
  2.504885e+01    6.728609e+03
  2.507173e+01    9.112252e+03
  2.509462e+01    9.752474e+03
  2.511750e+01    1.079300e+04
  2.514039e+01    1.137604e+04
  2.516327e+01    1.152353e+04
  2.518616e+01    1.157687e+04
  2.520905e+01    1.162769e+04
  2.523193e+01    1.154199e+04
  2.525482e+01    1.161368e+04
  2.527770e+01    1.190421e+04
  2.530059e+01    1.191019e+04
  2.532347e+01    1.185288e+04
  2.534636e+01    1.180983e+04
  2.536924e+01    1.179325e+04
  2.539213e+01    1.181790e+04
  2.541501e+01    1.184421e+04
  2.543790e+01    1.187037e+04
  2.546078e+01    1.190779e+04
  2.548367e+01    1.187365e+04
  2.550656e+01    1.175906e+04
  2.552944e+01    1.170014e+04
  2.555233e+01    1.183376e+04
  2.557521e+01    1.188590e+04
  2.559810e+01    1.187063e+04
  2.562098e+01    1.189810e+04
  2.564387e+01    1.193895e+04
  2.566675e+01    1.196601e+04
  2.568964e+01    1.193810e+04
  2.571252e+01    1.192380e+04
  2.573541e+01    1.194370e+04
  2.575829e+01    1.193364e+04
  2.578118e+01    1.188667e+04
  2.580407e+01    1.189117e+04
  2.582695e+01    1.190546e+04
  2.584984e+01    1.188120e+04
  2.587272e+01    1.185490e+04
  2.589561e+01    1.186781e+04
  2.591849e+01    1.183809e+04
  2.594138e+01    1.183116e+04
  2.596426e+01    1.184520e+04
  2.598715e+01    1.180058e+04
  2.601003e+01    1.181194e+04
  2.603292e+01    1.179305e+04
  2.605580e+01    1.177056e+04
  2.607869e+01    1.177508e+04
  2.610157e+01    1.176565e+04
  2.612446e+01    1.175211e+04
  2.614735e+01    1.173733e+04
  2.617023e+01    1.171586e+04
  2.619312e+01    1.170308e+04
  2.621600e+01    1.171373e+04
  2.623889e+01    1.168540e+04
  2.626177e+01    1.167584e+04
  2.628466e+01    1.167072e+04
  2.630754e+01    1.165962e+04
  2.633043e+01    1.163641e+04
  2.635331e+01    1.161814e+04
  2.637620e+01    1.158829e+04
  2.639908e+01    1.154041e+04
  2.642197e+01    1.148776e+04
  2.644486e+01    1.144254e+04
  2.646774e+01    1.140914e+04
  2.649063e+01    1.132371e+04
  2.651351e+01    1.126229e+04
  2.653640e+01    1.120433e+04
  2.655928e+01    1.114669e+04
  2.658217e+01    1.110258e+04
  2.660505e+01    1.106134e+04
  2.662794e+01    1.103446e+04
  2.665082e+01    1.099309e+04
  2.667371e+01    1.095291e+04
  2.669659e+01    1.092410e+04
  2.671948e+01    1.091130e+04
  2.674237e+01    1.089879e+04
  2.676525e+01    1.089712e+04
  2.678814e+01    1.091522e+04
  2.681102e+01    1.096636e+04
  2.683391e+01    1.098956e+04
  2.685679e+01    1.104052e+04
  2.687968e+01    1.116013e+04
  2.690256e+01    1.133218e+04
  2.692545e+01    1.163811e+04
  2.694833e+01    1.209488e+04
  2.697122e+01    1.286999e+04
  2.699410e+01    1.442703e+04
  2.701699e+01    1.723830e+04
  2.703988e+01    2.105974e+04
  2.706276e+01    2.602155e+04
  2.708565e+01    3.237637e+04
  2.710853e+01    3.914827e+04
  2.713142e+01    4.335291e+04
  2.715430e+01    4.500446e+04
  2.717719e+01    4.355762e+04
  2.720007e+01    3.849727e+04
  2.722296e+01    3.162931e+04
  2.724584e+01    2.472402e+04
  2.726873e+01    1.947850e+04
  2.729161e+01    1.540424e+04
  2.731450e+01    1.296485e+04
  2.733738e+01    1.156303e+04
  2.736027e+01    1.087971e+04
  2.738316e+01    1.045894e+04
  2.740604e+01    1.014436e+04
  2.742893e+01    9.915535e+03
  2.745181e+01    9.745890e+03
  2.747470e+01    9.592145e+03
  2.749758e+01    9.465053e+03
  2.752047e+01    9.349936e+03
  2.754335e+01    9.259465e+03
  2.756624e+01    9.191513e+03
  2.758912e+01    9.116961e+03
  2.761201e+01    9.041120e+03
  2.763489e+01    8.971505e+03
  2.765778e+01    8.916794e+03
  2.768067e+01    8.855205e+03
  2.770355e+01    8.789446e+03
  2.772644e+01    8.710332e+03
  2.774932e+01    8.635587e+03
  2.777221e+01    8.582574e+03
  2.779509e+01    8.534602e+03
  2.781798e+01    8.491776e+03
  2.784086e+01    8.438551e+03
  2.786375e+01    8.389223e+03
  2.788663e+01    8.347764e+03
  2.790952e+01    8.312717e+03
  2.793240e+01    8.285681e+03
  2.795529e+01    8.253566e+03
  2.797818e+01    8.218579e+03
  2.800106e+01    8.189062e+03
  2.802395e+01    8.166090e+03
  2.804683e+01    8.137279e+03
  2.806972e+01    8.105751e+03
  2.809260e+01    8.084593e+03
  2.811549e+01    8.061396e+03
  2.813837e+01    8.044464e+03
  2.816126e+01    8.031884e+03
  2.818414e+01    8.015398e+03
  2.820703e+01    7.996757e+03
  2.822991e+01    7.972885e+03
  2.825280e+01    7.949927e+03
  2.827568e+01    7.934988e+03
  2.829857e+01    7.924998e+03
  2.832146e+01    7.920790e+03
  2.834434e+01    7.907651e+03
  2.836723e+01    7.892465e+03
  2.839011e+01    7.877577e+03
  2.841300e+01    7.865330e+03
  2.843588e+01    7.862983e+03
  2.845877e+01    7.844167e+03
  2.848165e+01    7.823552e+03
  2.850454e+01    7.811710e+03
  2.852742e+01    7.807028e+03
  2.855031e+01    7.810105e+03
  2.857319e+01    7.804021e+03
  2.859608e+01    7.783849e+03
  2.861897e+01    7.765614e+03
  2.864185e+01    7.749316e+03
  2.866474e+01    7.730270e+03
  2.868762e+01    7.700534e+03
  2.871051e+01    7.683613e+03
  2.873339e+01    7.675536e+03
  2.875628e+01    7.660885e+03
  2.877916e+01    7.643593e+03
  2.880205e+01    7.629578e+03
  2.882493e+01    7.618532e+03
  2.884782e+01    7.613064e+03
  2.887070e+01    7.600464e+03
  2.889359e+01    7.588961e+03
  2.891648e+01    7.577800e+03
  2.893936e+01    7.567971e+03
  2.896225e+01    7.551740e+03
  2.898513e+01    7.545355e+03
  2.900802e+01    7.539796e+03
  2.903090e+01    7.522808e+03
  2.905379e+01    7.505234e+03
  2.907667e+01    7.497770e+03
  2.909956e+01    7.486601e+03
  2.912244e+01    7.480345e+03
  2.914533e+01    7.489961e+03
  2.916821e+01    7.512154e+03
  2.919110e+01    7.494010e+03
  2.921398e+01    7.454077e+03
  2.923687e+01    7.438400e+03
  2.925976e+01    7.432764e+03
  2.928264e+01    7.434423e+03
  2.930553e+01    7.425694e+03
  2.932841e+01    7.407305e+03
  2.935130e+01    7.387202e+03
  2.937418e+01    7.377818e+03
  2.939707e+01    7.385347e+03
  2.941995e+01    7.381388e+03
  2.944284e+01    7.374919e+03
  2.946572e+01    7.366873e+03
  2.948861e+01    7.343925e+03
  2.951149e+01    7.327164e+03
  2.953438e+01    7.324159e+03
  2.955727e+01    7.318150e+03
  2.958015e+01    7.305523e+03
  2.960304e+01    7.306626e+03
  2.962592e+01    7.297058e+03
  2.964881e+01    7.282844e+03
  2.967169e+01    7.266082e+03
  2.969458e+01    7.258389e+03
  2.971746e+01    7.258137e+03
  2.974035e+01    7.251245e+03
  2.976323e+01    7.239803e+03
  2.978612e+01    7.236580e+03
  2.980900e+01    7.228095e+03
  2.983189e+01    7.223257e+03
  2.985478e+01    7.216022e+03
  2.987766e+01    7.198938e+03
  2.990055e+01    7.184694e+03
  2.992343e+01    7.180540e+03
  2.994632e+01    7.173662e+03
  2.996920e+01    7.169222e+03
  2.999209e+01    7.171820e+03
  3.001497e+01    7.172546e+03
  3.003786e+01    7.162309e+03
  3.006074e+01    7.154437e+03
  3.008363e+01    7.152549e+03
  3.010651e+01    7.147887e+03
  3.012940e+01    7.141754e+03
  3.015228e+01    7.130738e+03
  3.017517e+01    7.124161e+03
  3.019806e+01    7.127015e+03
  3.022094e+01    7.121385e+03
  3.024383e+01    7.113483e+03
  3.026671e+01    7.109319e+03
  3.028960e+01    7.109080e+03
  3.031248e+01    7.101989e+03
  3.033537e+01    7.095931e+03
  3.035825e+01    7.093475e+03
  3.038114e+01    7.086280e+03
  3.040402e+01    7.081858e+03
  3.042691e+01    7.087781e+03
  3.044979e+01    7.096396e+03
  3.047268e+01    7.104907e+03
  3.049557e+01    7.104316e+03
  3.051845e+01    7.097600e+03
  3.054134e+01    7.088506e+03
  3.056422e+01    7.089278e+03
  3.058711e+01    7.086202e+03
  3.060999e+01    7.079322e+03
  3.063288e+01    7.067446e+03
  3.065576e+01    7.065172e+03
  3.067865e+01    7.065355e+03
  3.070153e+01    7.069991e+03
  3.072442e+01    7.066312e+03
  3.074730e+01    7.062523e+03
  3.077019e+01    7.055038e+03
  3.079308e+01    7.053198e+03
  3.081596e+01    7.045662e+03
  3.083885e+01    7.038185e+03
  3.086173e+01    7.041627e+03
  3.088462e+01    7.061253e+03
  3.090750e+01    7.061718e+03
  3.093039e+01    7.041995e+03
  3.095327e+01    7.026889e+03
  3.097616e+01    7.031974e+03
  3.099904e+01    7.035898e+03
  3.102193e+01    7.037302e+03
  3.104481e+01    7.039528e+03
  3.106770e+01    7.047367e+03
  3.109059e+01    7.051805e+03
  3.111347e+01    7.064031e+03
  3.113636e+01    7.080688e+03
  3.115924e+01    7.115528e+03
  3.118213e+01    7.166055e+03
  3.120501e+01    7.231411e+03
  3.122790e+01    7.321453e+03
  3.125078e+01    7.463357e+03
  3.127367e+01    7.672953e+03
  3.129655e+01    8.031408e+03
  3.131944e+01    8.674930e+03
  3.134232e+01    1.011578e+04
  3.136521e+01    1.329508e+04
  3.138809e+01    1.758473e+04
  3.141098e+01    2.251610e+04
  3.143387e+01    2.701128e+04
  3.145675e+01    3.016958e+04
  3.147964e+01    2.974531e+04
  3.150252e+01    2.613270e+04
  3.152541e+01    2.193232e+04
  3.154829e+01    1.802616e+04
  3.157118e+01    1.377848e+04
  3.159406e+01    1.017950e+04
  3.161695e+01    8.193756e+03
  3.163983e+01    7.659187e+03
  3.166272e+01    7.396767e+03
  3.168560e+01    7.230826e+03
  3.170849e+01    7.118594e+03
  3.173138e+01    7.038885e+03
  3.175426e+01    6.968659e+03
  3.177715e+01    6.919281e+03
  3.180003e+01    6.894285e+03
  3.182292e+01    6.873264e+03
  3.184580e+01    6.862442e+03
  3.186869e+01    6.859735e+03
  3.189157e+01    6.827568e+03
  3.191446e+01    6.790424e+03
  3.193734e+01    6.765518e+03
  3.196023e+01    6.753808e+03
  3.198311e+01    6.738653e+03
  3.200600e+01    6.722561e+03
  3.202889e+01    6.713610e+03
  3.205177e+01    6.704178e+03
  3.207466e+01    6.690806e+03
  3.209754e+01    6.675230e+03
  3.212043e+01    6.667761e+03
  3.214331e+01    6.667719e+03
  3.216620e+01    6.673366e+03
  3.218908e+01    6.657151e+03
  3.221197e+01    6.635726e+03
  3.223485e+01    6.621195e+03
  3.225774e+01    6.615669e+03
  3.228062e+01    6.606348e+03
  3.230351e+01    6.587223e+03
  3.232639e+01    6.578008e+03
  3.234928e+01    6.573015e+03
  3.237217e+01    6.564098e+03
  3.239505e+01    6.553584e+03
  3.241794e+01    6.542914e+03
  3.244082e+01    6.541719e+03
  3.246371e+01    6.532747e+03
  3.248659e+01    6.515687e+03
  3.250948e+01    6.501522e+03
  3.253236e+01    6.496052e+03
  3.255525e+01    6.491205e+03
  3.257813e+01    6.507297e+03
  3.260102e+01    6.532889e+03
  3.262390e+01    6.498534e+03
  3.264679e+01    6.453349e+03
  3.266968e+01    6.435485e+03
  3.269256e+01    6.426063e+03
  3.271545e+01    6.428158e+03
  3.273833e+01    6.422137e+03
  3.276122e+01    6.408587e+03
  3.278410e+01    6.398212e+03
  3.280699e+01    6.392397e+03
  3.282987e+01    6.386368e+03
  3.285276e+01    6.377814e+03
  3.287564e+01    6.366974e+03
  3.289853e+01    6.362410e+03
  3.292141e+01    6.351204e+03
  3.294430e+01    6.346082e+03
  3.296719e+01    6.339927e+03
  3.299007e+01    6.334684e+03
  3.301296e+01    6.330234e+03
  3.303584e+01    6.333931e+03
  3.305873e+01    6.330004e+03
  3.308161e+01    6.310091e+03
  3.310450e+01    6.297893e+03
  3.312738e+01    6.284345e+03
  3.315027e+01    6.270861e+03
  3.317315e+01    6.262019e+03
  3.319604e+01    6.260546e+03
  3.321892e+01    6.255924e+03
  3.324181e+01    6.253497e+03
  3.326469e+01    6.242451e+03
  3.328758e+01    6.234223e+03
  3.331047e+01    6.221334e+03
  3.333335e+01    6.209674e+03
  3.335624e+01    6.205094e+03
  3.337912e+01    6.201454e+03
  3.340201e+01    6.193847e+03
  3.342489e+01    6.186710e+03
  3.344778e+01    6.184681e+03
  3.347066e+01    6.176978e+03
  3.349355e+01    6.172348e+03
  3.351643e+01    6.163852e+03
  3.353932e+01    6.156009e+03
  3.356220e+01    6.148514e+03
  3.358509e+01    6.135475e+03
  3.360798e+01    6.124861e+03
  3.363086e+01    6.112203e+03
  3.365375e+01    6.109919e+03
  3.367663e+01    6.106910e+03
  3.369952e+01    6.099964e+03
  3.372240e+01    6.092473e+03
  3.374529e+01    6.079160e+03
  3.376817e+01    6.072177e+03
  3.379106e+01    6.068082e+03
  3.381394e+01    6.066626e+03
  3.383683e+01    6.056317e+03
  3.385971e+01    6.042591e+03
  3.388260e+01    6.038982e+03
  3.390549e+01    6.028881e+03
  3.392837e+01    6.021444e+03
  3.395126e+01    6.016684e+03
  3.397414e+01    6.013076e+03
  3.399703e+01    6.000311e+03
  3.401991e+01    5.992568e+03
  3.404280e+01    5.986839e+03
  3.406568e+01    5.976946e+03
  3.408857e+01    5.972496e+03
  3.411145e+01    5.969889e+03
  3.413434e+01    5.968235e+03
  3.415722e+01    5.963833e+03
  3.418011e+01    5.959041e+03
  3.420300e+01    5.945827e+03
  3.422588e+01    5.940084e+03
  3.424877e+01    5.940330e+03
  3.427165e+01    5.940057e+03
  3.429454e+01    5.934045e+03
  3.431742e+01    5.928358e+03
  3.434031e+01    5.919467e+03
  3.436319e+01    5.913626e+03
  3.438608e+01    5.908931e+03
  3.440896e+01    5.913988e+03
  3.443185e+01    5.914227e+03
  3.445473e+01    5.914365e+03
  3.447762e+01    5.914031e+03
  3.450050e+01    5.914219e+03
  3.452339e+01    5.915949e+03
  3.454628e+01    5.913522e+03
  3.456916e+01    5.912768e+03
  3.459205e+01    5.923520e+03
  3.461493e+01    5.926333e+03
  3.463782e+01    5.931704e+03
  3.466070e+01    5.944145e+03
  3.468359e+01    5.957161e+03
  3.470647e+01    5.967977e+03
  3.472936e+01    5.976398e+03
  3.475224e+01    5.981967e+03
  3.477513e+01    5.989757e+03
  3.479801e+01    5.994526e+03
  3.482090e+01    6.008767e+03
  3.484379e+01    6.020355e+03
  3.486667e+01    6.036375e+03
  3.488956e+01    6.049749e+03
  3.491244e+01    6.066394e+03
  3.493533e+01    6.099526e+03
  3.495821e+01    6.134460e+03
  3.498110e+01    6.186629e+03
  3.500398e+01    6.254033e+03
  3.502687e+01    6.344162e+03
  3.504975e+01    6.479655e+03
  3.507264e+01    6.682926e+03
  3.509552e+01    7.035261e+03
  3.511841e+01    7.912206e+03
  3.514130e+01    9.698651e+03
  3.516418e+01    1.322245e+04
  3.518707e+01    1.885728e+04
  3.520995e+01    2.673236e+04
  3.523284e+01    3.790237e+04
  3.525572e+01    4.755426e+04
  3.527861e+01    5.412725e+04
  3.530149e+01    5.635043e+04
  3.532438e+01    5.412298e+04
  3.534726e+01    4.621727e+04
  3.537015e+01    3.451207e+04
  3.539303e+01    2.301805e+04
  3.541592e+01    1.451089e+04
  3.543880e+01    9.905986e+03
  3.546169e+01    8.132019e+03
  3.548458e+01    7.286534e+03
  3.550746e+01    6.687920e+03
  3.553035e+01    6.360938e+03
  3.555323e+01    6.187113e+03
  3.557612e+01    6.061288e+03
  3.559900e+01    5.972292e+03
  3.562189e+01    5.893020e+03
  3.564477e+01    5.833260e+03
  3.566766e+01    5.789065e+03
  3.569054e+01    5.750043e+03
  3.571343e+01    5.719797e+03
  3.573631e+01    5.696575e+03
  3.575920e+01    5.672467e+03
  3.578209e+01    5.654664e+03
  3.580497e+01    5.634777e+03
  3.582786e+01    5.621110e+03
  3.585074e+01    5.605111e+03
  3.587363e+01    5.590397e+03
  3.589651e+01    5.574570e+03
  3.591940e+01    5.560931e+03
  3.594228e+01    5.553417e+03
  3.596517e+01    5.552344e+03
  3.598805e+01    5.546523e+03
  3.601094e+01    5.535756e+03
  3.603382e+01    5.527458e+03
  3.605671e+01    5.521063e+03
  3.607960e+01    5.519696e+03
  3.610248e+01    5.515728e+03
  3.612537e+01    5.499166e+03
  3.614825e+01    5.489789e+03
  3.617114e+01    5.474946e+03
  3.619402e+01    5.467192e+03
  3.621691e+01    5.459601e+03
  3.623979e+01    5.445275e+03
  3.626268e+01    5.439978e+03
  3.628556e+01    5.436079e+03
  3.630845e+01    5.430372e+03
  3.633133e+01    5.417470e+03
  3.635422e+01    5.412170e+03
  3.637710e+01    5.406624e+03
  3.639999e+01    5.396647e+03
  3.642288e+01    5.393063e+03
  3.644576e+01    5.385472e+03
  3.646865e+01    5.386940e+03
  3.649153e+01    5.382669e+03
  3.651442e+01    5.373125e+03
  3.653730e+01    5.373151e+03
  3.656019e+01    5.372047e+03
  3.658307e+01    5.366655e+03
  3.660596e+01    5.360633e+03
  3.662884e+01    5.356119e+03
  3.665173e+01    5.349962e+03
  3.667461e+01    5.342727e+03
  3.669750e+01    5.344367e+03
  3.672039e+01    5.350839e+03
  3.674327e+01    5.344597e+03
  3.676616e+01    5.331362e+03
  3.678904e+01    5.329051e+03
  3.681193e+01    5.326629e+03
  3.683481e+01    5.323439e+03
  3.685770e+01    5.321865e+03
  3.688058e+01    5.323596e+03
  3.690347e+01    5.323200e+03
  3.692635e+01    5.320734e+03
  3.694924e+01    5.313320e+03
  3.697212e+01    5.312298e+03
  3.699501e+01    5.319393e+03
  3.701790e+01    5.314480e+03
  3.704078e+01    5.313620e+03
  3.706367e+01    5.309868e+03
  3.708655e+01    5.310749e+03
  3.710944e+01    5.318844e+03
  3.713232e+01    5.317569e+03
  3.715521e+01    5.317872e+03
  3.717809e+01    5.318835e+03
  3.720098e+01    5.318001e+03
  3.722386e+01    5.315809e+03
  3.724675e+01    5.317599e+03
  3.726963e+01    5.325476e+03
  3.729252e+01    5.328464e+03
  3.731541e+01    5.320092e+03
  3.733829e+01    5.314941e+03
  3.736118e+01    5.319195e+03
  3.738406e+01    5.321617e+03
  3.740695e+01    5.324932e+03
  3.742983e+01    5.323188e+03
  3.745272e+01    5.321195e+03
  3.747560e+01    5.320956e+03
  3.749849e+01    5.320291e+03
  3.752137e+01    5.323840e+03
  3.754426e+01    5.332543e+03
  3.756714e+01    5.333979e+03
  3.759003e+01    5.341671e+03
  3.761291e+01    5.344198e+03
  3.763580e+01    5.339159e+03
  3.765869e+01    5.345137e+03
  3.768157e+01    5.347546e+03
  3.770446e+01    5.343482e+03
  3.772734e+01    5.344104e+03
  3.775023e+01    5.346386e+03
  3.777311e+01    5.349219e+03
  3.779600e+01    5.368208e+03
  3.781888e+01    5.371387e+03
  3.784177e+01    5.359880e+03
  3.786465e+01    5.360946e+03
  3.788754e+01    5.360705e+03
  3.791042e+01    5.365488e+03
  3.793331e+01    5.374568e+03
  3.795620e+01    5.374643e+03
  3.797908e+01    5.366604e+03
  3.800197e+01    5.362543e+03
  3.802485e+01    5.364842e+03
  3.804774e+01    5.368379e+03
  3.807062e+01    5.377115e+03
  3.809351e+01    5.381411e+03
  3.811639e+01    5.383309e+03
  3.813928e+01    5.383943e+03
  3.816216e+01    5.387880e+03
  3.818505e+01    5.396360e+03
  3.820793e+01    5.394351e+03
  3.823082e+01    5.394628e+03
  3.825371e+01    5.406038e+03
  3.827659e+01    5.416385e+03
  3.829948e+01    5.431814e+03
  3.832236e+01    5.444890e+03
  3.834525e+01    5.447969e+03
  3.836813e+01    5.454373e+03
  3.839102e+01    5.468624e+03
  3.841390e+01    5.494892e+03
  3.843679e+01    5.520706e+03
  3.845967e+01    5.551145e+03
  3.848256e+01    5.583487e+03
  3.850544e+01    5.631794e+03
  3.852833e+01    5.692093e+03
  3.855121e+01    5.772484e+03
  3.857410e+01    5.894316e+03
  3.859699e+01    6.079021e+03
  3.861987e+01    6.393764e+03
  3.864276e+01    7.018270e+03
  3.866564e+01    8.707512e+03
  3.868853e+01    1.237695e+04
  3.871141e+01    1.787245e+04
  3.873430e+01    2.385095e+04
  3.875718e+01    2.988755e+04
  3.878007e+01    3.277612e+04
  3.880295e+01    3.141373e+04
  3.882584e+01    2.633467e+04
  3.884872e+01    1.925467e+04
  3.887161e+01    1.354337e+04
  3.889450e+01    9.346427e+03
  3.891738e+01    7.307666e+03
  3.894027e+01    6.462928e+03
  3.896315e+01    6.115992e+03
  3.898604e+01    5.920678e+03
  3.900892e+01    5.796458e+03
  3.903181e+01    5.710092e+03
  3.905469e+01    5.647550e+03
  3.907758e+01    5.595658e+03
  3.910046e+01    5.558066e+03
  3.912335e+01    5.539022e+03
  3.914623e+01    5.518874e+03
  3.916912e+01    5.504063e+03
  3.919201e+01    5.495286e+03
  3.921489e+01    5.469289e+03
  3.923778e+01    5.454347e+03
  3.926066e+01    5.444840e+03
  3.928355e+01    5.434181e+03
  3.930643e+01    5.429683e+03
  3.932932e+01    5.416740e+03
  3.935220e+01    5.411750e+03
  3.937509e+01    5.408809e+03
  3.939797e+01    5.399505e+03
  3.942086e+01    5.392584e+03
  3.944374e+01    5.377760e+03
  3.946663e+01    5.374639e+03
  3.948951e+01    5.369843e+03
  3.951240e+01    5.361053e+03
  3.953529e+01    5.356033e+03
  3.955817e+01    5.349662e+03
  3.958106e+01    5.342298e+03
  3.960394e+01    5.338749e+03
  3.962683e+01    5.328901e+03
  3.964971e+01    5.319482e+03
  3.967260e+01    5.319921e+03
  3.969548e+01    5.321591e+03
  3.971837e+01    5.313897e+03
  3.974125e+01    5.305342e+03
  3.976414e+01    5.295165e+03
  3.978702e+01    5.293812e+03
  3.980991e+01    5.285665e+03
  3.983280e+01    5.282020e+03
  3.985568e+01    5.287015e+03
  3.987857e+01    5.296234e+03
  3.990145e+01    5.301473e+03
  3.992434e+01    5.287195e+03
  3.994722e+01    5.287482e+03
  3.997011e+01    5.286336e+03
  3.999299e+01    5.273424e+03
  4.001588e+01    5.266093e+03
  4.003876e+01    5.265595e+03
  4.006165e+01    5.274061e+03
  4.008453e+01    5.275495e+03
  4.010742e+01    5.274844e+03
  4.013031e+01    5.263255e+03
  4.015319e+01    5.255684e+03
  4.017608e+01    5.265100e+03
  4.019896e+01    5.267856e+03
  4.022185e+01    5.262554e+03
  4.024473e+01    5.252429e+03
  4.026762e+01    5.249542e+03
  4.029050e+01    5.250794e+03
  4.031339e+01    5.249480e+03
  4.033627e+01    5.247138e+03
  4.035916e+01    5.245066e+03
  4.038204e+01    5.238319e+03
  4.040493e+01    5.236666e+03
  4.042782e+01    5.234295e+03
  4.045070e+01    5.235938e+03
  4.047359e+01    5.235803e+03
  4.049647e+01    5.227813e+03
  4.051936e+01    5.230952e+03
  4.054224e+01    5.228502e+03
  4.056513e+01    5.219368e+03
  4.058801e+01    5.213815e+03
  4.061090e+01    5.216926e+03
  4.063378e+01    5.219720e+03
  4.065667e+01    5.216979e+03
  4.067955e+01    5.210318e+03
  4.070244e+01    5.212375e+03
  4.072532e+01    5.222719e+03
  4.074821e+01    5.227194e+03
  4.077110e+01    5.215545e+03
  4.079398e+01    5.208157e+03
  4.081687e+01    5.208614e+03
  4.083975e+01    5.212313e+03
  4.086264e+01    5.211755e+03
  4.088552e+01    5.210623e+03
  4.090841e+01    5.206083e+03
  4.093129e+01    5.199052e+03
  4.095418e+01    5.203375e+03
  4.097706e+01    5.202907e+03
  4.099995e+01    5.204140e+03
  4.102283e+01    5.201167e+03
  4.104572e+01    5.198422e+03
  4.106861e+01    5.193820e+03
  4.109149e+01    5.193352e+03
  4.111438e+01    5.196214e+03
  4.113726e+01    5.192221e+03
  4.116015e+01    5.189732e+03
  4.118303e+01    5.183367e+03
  4.120592e+01    5.177507e+03
  4.122880e+01    5.182282e+03
  4.125169e+01    5.189741e+03
  4.127457e+01    5.192217e+03
  4.129746e+01    5.196149e+03
  4.132034e+01    5.193455e+03
  4.134323e+01    5.191928e+03
  4.136612e+01    5.186336e+03
  4.138900e+01    5.188501e+03
  4.141189e+01    5.189077e+03
  4.143477e+01    5.185838e+03
  4.145766e+01    5.187098e+03
  4.148054e+01    5.187795e+03
  4.150343e+01    5.189488e+03
  4.152631e+01    5.190164e+03
  4.154920e+01    5.195006e+03
  4.157208e+01    5.188173e+03
  4.159497e+01    5.199040e+03
  4.161785e+01    5.210143e+03
  4.164074e+01    5.203547e+03
  4.166362e+01    5.197187e+03
  4.168651e+01    5.203324e+03
  4.170940e+01    5.204522e+03
  4.173228e+01    5.207784e+03
  4.175517e+01    5.199644e+03
  4.177805e+01    5.188911e+03
  4.180094e+01    5.190135e+03
  4.182382e+01    5.192650e+03
  4.184671e+01    5.194747e+03
  4.186959e+01    5.199045e+03
  4.189248e+01    5.199790e+03
  4.191536e+01    5.196000e+03
  4.193825e+01    5.193254e+03
  4.196113e+01    5.201455e+03
  4.198402e+01    5.195144e+03
  4.200691e+01    5.189100e+03
  4.202979e+01    5.189983e+03
  4.205268e+01    5.195462e+03
  4.207556e+01    5.195271e+03
  4.209845e+01    5.186855e+03
  4.212133e+01    5.186251e+03
  4.214422e+01    5.182704e+03
  4.216710e+01    5.183126e+03
  4.218999e+01    5.189288e+03
  4.221287e+01    5.201262e+03
  4.223576e+01    5.192153e+03
  4.225864e+01    5.184615e+03
  4.228153e+01    5.182173e+03
  4.230442e+01    5.184519e+03
  4.232730e+01    5.192640e+03
  4.235019e+01    5.192805e+03
  4.237307e+01    5.196718e+03
  4.239596e+01    5.194394e+03
  4.241884e+01    5.195917e+03
  4.244173e+01    5.192353e+03
  4.246461e+01    5.187452e+03
  4.248750e+01    5.187192e+03
  4.251038e+01    5.190559e+03
  4.253327e+01    5.192292e+03
  4.255615e+01    5.198160e+03
  4.257904e+01    5.200562e+03
  4.260192e+01    5.198439e+03
  4.262481e+01    5.202767e+03
  4.264770e+01    5.189752e+03
  4.267058e+01    5.191979e+03
  4.269347e+01    5.202653e+03
  4.271635e+01    5.205337e+03
  4.273924e+01    5.203768e+03
  4.276212e+01    5.203984e+03
  4.278501e+01    5.205554e+03
  4.280789e+01    5.198734e+03
  4.283078e+01    5.193450e+03
  4.285366e+01    5.193569e+03
  4.287655e+01    5.189886e+03
  4.289943e+01    5.196875e+03
  4.292232e+01    5.195875e+03
  4.294521e+01    5.198455e+03
  4.296809e+01    5.199805e+03
  4.299098e+01    5.199605e+03
  4.301386e+01    5.206260e+03
  4.303675e+01    5.199971e+03
  4.305963e+01    5.183657e+03
  4.308252e+01    5.175943e+03
  4.310540e+01    5.179630e+03
  4.312829e+01    5.177434e+03
  4.315117e+01    5.175549e+03
  4.317406e+01    5.176290e+03
  4.319694e+01    5.178095e+03
  4.321983e+01    5.176704e+03
  4.324272e+01    5.181237e+03
  4.326560e+01    5.182710e+03
  4.328849e+01    5.175255e+03
  4.331137e+01    5.176481e+03
  4.333426e+01    5.170282e+03
  4.335714e+01    5.177063e+03
  4.338003e+01    5.174586e+03
  4.340291e+01    5.171650e+03
  4.342580e+01    5.179828e+03
  4.344868e+01    5.176750e+03
  4.347157e+01    5.171207e+03
  4.349445e+01    5.165834e+03
  4.351734e+01    5.162744e+03
  4.354022e+01    5.159164e+03
  4.356311e+01    5.168681e+03
  4.358600e+01    5.168162e+03
  4.360888e+01    5.161060e+03
  4.363177e+01    5.165818e+03
  4.365465e+01    5.162841e+03
  4.367754e+01    5.160448e+03
  4.370042e+01    5.161395e+03
  4.372331e+01    5.162369e+03
  4.374619e+01    5.163228e+03
  4.376908e+01    5.165465e+03
  4.379196e+01    5.162678e+03
  4.381485e+01    5.160771e+03
  4.383773e+01    5.156122e+03
  4.386062e+01    5.161981e+03
  4.388351e+01    5.163354e+03
  4.390639e+01    5.165397e+03
  4.392928e+01    5.161115e+03
  4.395216e+01    5.163528e+03
  4.397505e+01    5.169689e+03
  4.399793e+01    5.167853e+03
  4.402082e+01    5.170499e+03
  4.404370e+01    5.182294e+03
  4.406659e+01    5.174142e+03
  4.408947e+01    5.174189e+03
  4.411236e+01    5.197629e+03
  4.413524e+01    5.208001e+03
  4.415813e+01    5.180458e+03
  4.418102e+01    5.174468e+03
  4.420390e+01    5.176211e+03
  4.422679e+01    5.173064e+03
  4.424967e+01    5.176819e+03
  4.427256e+01    5.187118e+03
  4.429544e+01    5.189875e+03
  4.431833e+01    5.194520e+03
  4.434121e+01    5.195756e+03
  4.436410e+01    5.205245e+03
  4.438698e+01    5.200515e+03
  4.440987e+01    5.199693e+03
  4.443275e+01    5.202474e+03
  4.445564e+01    5.200373e+03
  4.447853e+01    5.209089e+03
  4.450141e+01    5.215021e+03
  4.452430e+01    5.219758e+03
  4.454718e+01    5.216854e+03
  4.457007e+01    5.220092e+03
  4.459295e+01    5.231096e+03
  4.461584e+01    5.235687e+03
  4.463872e+01    5.239921e+03
  4.466161e+01    5.242784e+03
  4.468449e+01    5.237639e+03
  4.470738e+01    5.240970e+03
  4.473026e+01    5.262946e+03
  4.475315e+01    5.282892e+03
  4.477603e+01    5.291430e+03
  4.479892e+01    5.312361e+03
  4.482181e+01    5.338412e+03
  4.484469e+01    5.365908e+03
  4.486758e+01    5.415361e+03
  4.489046e+01    5.502285e+03
  4.491335e+01    5.655423e+03
  4.493623e+01    6.275915e+03
  4.495912e+01    7.086847e+03
  4.498200e+01    8.013055e+03
  4.500489e+01    1.043500e+04
  4.502777e+01    1.317371e+04
  4.505066e+01    1.496707e+04
  4.507354e+01    1.654040e+04
  4.509643e+01    1.561512e+04
  4.511932e+01    1.377063e+04
  4.514220e+01    1.068194e+04
  4.516509e+01    7.636961e+03
  4.518797e+01    6.383711e+03
  4.521086e+01    5.874867e+03
  4.523374e+01    5.631643e+03
  4.525663e+01    5.502993e+03
  4.527951e+01    5.425268e+03
  4.530240e+01    5.376019e+03
  4.532528e+01    5.334295e+03
  4.534817e+01    5.312440e+03
  4.537105e+01    5.304408e+03
  4.539394e+01    5.282804e+03
  4.541683e+01    5.267033e+03
  4.543971e+01    5.255639e+03
  4.546260e+01    5.253359e+03
  4.548548e+01    5.247110e+03
  4.550837e+01    5.246284e+03
  4.553125e+01    5.248984e+03
  4.555414e+01    5.247732e+03
  4.557702e+01    5.241633e+03
  4.559991e+01    5.236785e+03
  4.562279e+01    5.228751e+03
  4.564568e+01    5.231421e+03
  4.566856e+01    5.230525e+03
  4.569145e+01    5.227449e+03
  4.571433e+01    5.226242e+03
  4.573722e+01    5.220746e+03
  4.576011e+01    5.216469e+03
  4.578299e+01    5.221348e+03
  4.580588e+01    5.223790e+03
  4.582876e+01    5.212554e+03
  4.585165e+01    5.210095e+03
  4.587453e+01    5.204559e+03
  4.589742e+01    5.200212e+03
  4.592030e+01    5.194020e+03
  4.594319e+01    5.198419e+03
  4.596607e+01    5.207833e+03
  4.598896e+01    5.193201e+03
  4.601184e+01    5.187055e+03
  4.603473e+01    5.172541e+03
  4.605762e+01    5.177561e+03
  4.608050e+01    5.173917e+03
  4.610339e+01    5.167928e+03
  4.612627e+01    5.170271e+03
  4.614916e+01    5.157670e+03
  4.617204e+01    5.149155e+03
  4.619493e+01    5.149773e+03
  4.621781e+01    5.158531e+03
  4.624070e+01    5.160458e+03
  4.626358e+01    5.169952e+03
  4.628647e+01    5.169882e+03
  4.630935e+01    5.162625e+03
  4.633224e+01    5.173300e+03
  4.635513e+01    5.159661e+03
  4.637801e+01    5.157028e+03
  4.640090e+01    5.154195e+03
  4.642378e+01    5.150313e+03
  4.644667e+01    5.159500e+03
  4.646955e+01    5.153248e+03
  4.649244e+01    5.164616e+03
  4.651532e+01    5.166355e+03
  4.653821e+01    5.158977e+03
  4.656109e+01    5.154514e+03
  4.658398e+01    5.146345e+03
  4.660686e+01    5.141040e+03
  4.662975e+01    5.134601e+03
  4.665263e+01    5.130689e+03
  4.667552e+01    5.127457e+03
  4.669841e+01    5.118086e+03
  4.672129e+01    5.120761e+03
  4.674418e+01    5.110524e+03
  4.676706e+01    5.108604e+03
  4.678995e+01    5.119724e+03
  4.681283e+01    5.119994e+03
  4.683572e+01    5.120054e+03
  4.685860e+01    5.096276e+03
  4.688149e+01    5.094319e+03
  4.690437e+01    5.098271e+03
  4.692726e+01    5.094121e+03
  4.695014e+01    5.086795e+03
  4.697303e+01    5.080667e+03
  4.699592e+01    5.083656e+03
  4.701880e+01    5.072561e+03
  4.704169e+01    5.070547e+03
  4.706457e+01    5.078139e+03
  4.708746e+01    5.084259e+03
  4.711034e+01    5.080891e+03
  4.713323e+01    5.087933e+03
  4.715611e+01    5.065923e+03
  4.717900e+01    5.056878e+03
  4.720188e+01    5.052808e+03
  4.722477e+01    5.050546e+03
  4.724765e+01    5.062237e+03
  4.727054e+01    5.053032e+03
  4.729343e+01    5.043735e+03
  4.731631e+01    5.036112e+03
  4.733920e+01    5.037049e+03
  4.736208e+01    5.048106e+03
  4.738497e+01    5.060452e+03
  4.740785e+01    5.084981e+03
  4.743074e+01    5.082266e+03
  4.745362e+01    5.074978e+03
  4.747651e+01    5.109079e+03
  4.749939e+01    5.133902e+03
  4.752228e+01    5.142578e+03
  4.754516e+01    5.163553e+03
  4.756805e+01    5.133559e+03
  4.759094e+01    5.202363e+03
  4.761382e+01    5.252460e+03
  4.763671e+01    5.259101e+03
  4.765959e+01    5.257793e+03
  4.768248e+01    5.325535e+03
  4.770536e+01    5.421542e+03
  4.772825e+01    5.478446e+03
  4.775113e+01    5.729998e+03
  4.777402e+01    5.908126e+03
  4.779690e+01    6.411710e+03
  4.781979e+01    6.927223e+03
  4.784267e+01    7.941729e+03
  4.786556e+01    9.165711e+03
  4.788844e+01    5.975172e+03